Time (s);Acceleration x (m/s^2);Acceleration y (m/s^2);Acceleration z (m/s^2);Absolute acceleration (m/s^2)
0,030061745;2,012326479;6,355408192;0,78170687;6,712059056
0,051727643;3,809175014;2,476801634;1,403002143;4,755289228
0,068265019;5,334281445;5,808333397;0,219069451;7,889187969
0,080914462;-1,647210717;8,291120529;1,754949808;8,63341367
0,092218663;-0,629675031;9,974244118;2,067393064;10,20569206
0,10287631;-0,739808321;9,640253067;2,245761156;9,925988047
0,113140082;-1,18991828;9,838972092;1,763329506;10,06631056
0,124678322;-0,970848799;9,579200745;1,825578809;9,799814911
0,13414101;0,038307227;9,600749016;1,385045648;9,700216521
0,143819411;0,023942016;9,794678688;1,632845521;9,929878565
0,153630356;-0,156820208;9,740809441;1,617283225;9,875402076
0,163704214;-0,354341865;9,692925453;1,533486247;9,81987485
0,173581976;-0,093373865;9,903614998;1,424550056;10,00598079
0,183558748;-0,02873042;10,14064121;1,352723956;10,23050789
0,193708306;0,039504327;10,41238308;1,355118155;10,50026796
0,203655325;0,339976639;10,63145256;1,270123959;10,71244988
0,213533183;0,320823014;10,17416;1,224634171;10,25261859
0,22357568;0,349553436;9,819818497;1,63643682;9,961372816
0,233559637;0,216675252;9,58638382;1,22822547;9,667173357
0,243523047;-0,652419984;8,901641846;1,133654475;8,997224675
0,25346733;-0,497993946;8,70771122;1,364694953;8,828058958
0,263726191;-0,010773907;8,80467701;1,329979062;8,904566111
0,273625179;-1,127668977;8,622717857;2,173935175;8,963754499
0,283568501;-1,920149803;7,831433773;2,469619036;8,433110244
0,293656646;-2,504334927;6,73129797;2,005143881;7,456719638
0,303634234;-1,908178806;7,459135532;1,714248419;7,887870238
0,313693914;-2,686294317;6,604405403;1,997961283;7,404471431
0,323547035;1,540668845;10,3501339;1,752555609;10,6099191
0,333544949;2,687491417;11,79264069;2,564189911;12,36382038
0,343518021;2,886210203;12,10987186;2,744952202;12,74809666
0,353534739;2,876633406;11,99734497;2,430114746;12,57444885
0,363491458;2,506729126;12,19366932;2,129642487;12,62951462
0,373504114;2,721010208;11,64779091;2,574964046;12,23541456
0,383541666;2,723404408;10,87326717;1,798045516;11,35243755
0,393456353;1,812410712;10,30464458;1,806425214;10,61761295
0,403461744;0,661996782;9,898826599;2,167949677;10,15504867
0,41402121;1,608903527;9,904812813;1,910573006;10,21489974
0,423794172;1,794454217;9,665391922;1,568202138;9,954854338
0,433675367;1,399410844;9,793481827;1,235408068;9,969797896
0,443597345;1,552639842;10,41717148;1,422155857;10,62782571
0,453735443;2,549824715;11,20606136;1,974019289;11,66079626
0,463594909;3,166331768;11,67293072;2,341529369;12,31932337
0,473559225;2,880224705;11,39640045;2,346317768;11,98661106
0,483481253;1,775300503;10,36330223;2,092532396;10,72046719
0,493692293;0,294486821;8,353369713;1,327584863;8,463332063
0,503654271;0,18435353;8,062474251;0,924161851;8,117361172
0,513639297;-0,025139118;8,251616478;0,432153404;8,262963333
0,523591523;-0,237025961;8,754398346;0,228646263;8,76059078
0,533487402;-0,284909993;9,290699959;0,146046311;9,296214765
0,544052685;0,046686932;9,649829865;-0,035913024;9,650009628
0,553962175;0,503979445;9,856928825;0,071826048;9,870065863
0,56397541;1,029506683;9,974244118;0,283712894;10,03124732
0,573766793;1,677138329;10,00177765;0,277727395;10,14521964
0,583614177;2,22900176;9,949105263;0,489614248;10,2074907
0,593552244;2,293645144;9,774328232;0,920570552;10,08195172
0,603516174;2,779668093;9,58039856;0,980425596;10,02356352
0,613790873;3,107673883;9,331400871;0,85353291;9,872243798
0,624407572;3,295618534;9,030928612;0,878672004;9,653540159
0,634050635;3,422511339;8,677783966;1,053448796;9,387612731
0,643758078;3,558980942;8,312667847;1,344344258;9,141884574
0,653584143;3,587711334;7,860164165;1,660378933;8,798335725
0,663575378;3,472789526;7,371747017;1,893813491;8,365969801
0,67357735;3,241749048;6,883329868;1,514332533;7,757729693
0,684155862;2,862268209;6,411672115;0,627280831;7,049510611
0,693776004;2,424129248;6,046556473;-0,090979666;6,51502303
0,703725996;1,836352706;5,738901615;-0,466869324;6,043604055
0,713554664;1,101332784;5,444414616;-0,59495914;5,586462278
0,723529493;-0,081402861;5,621585369;0,502782345;5,644611464
0,73368584;-0,434547603;6,098031521;0,916979253;6,18188248
0,74358167;-0,611718535;6,84621954;0,304063618;6,880216293
0,753637371;-0,790086567;8,110358238;-0,226252064;8,151891654
0,76406194;-1,365892053;9,06205368;-0,381875157;9,172366469
0,773726959;-1,347935557;11,02410126;-0,33279404;11,11118764
0,783574703;-1,179144382;13,88876438;0,645237386;13,95365503
0,793585971;-0,951695204;16,70314789;1,556231141;16,80246198
0,803972907;-0,55784899;19,76293755;1,711854219;19,8447812
0,813759812;-0,179565132;22,71019936;1,903390408;22,79053079
0,823651807;-0,062249243;24,06052971;2,56897831;24,19736792
0,833598559;-0,187944829;24,25805092;2,659958124;24,40417454
0,843482482;0,336385339;24,44719315;2,000355482;24,53120115
0,853530277;1,604115129;23,57331085;1,583764434;23,68084626
0,86353006;3,16034627;22,0661602;1,654393315;22,35263367
0,873459066;3,995922565;20,32078743;1,838746905;20,79141143
0,883679272;4,223371983;18,59097672;1,687912226;19,13923546
0,893607682;4,211400986;17,20353699;1,917755604;17,81503213
0,903772591;3,954024076;15,62575722;2,215833664;16,26986521
0,913710045;3,875015497;13,57632065;2,442085743;14,32815446
0,9236601;3,75650239;10,99537086;2,473210335;11,8796574
0,933794164;3,169923067;8,025363922;2,060210466;8,871265158
0,943857602;1,254561663;2,114080191;1,403002143;2,830490246
0,953628957;0,351947635;-0,749385118;1,085770488;1,365409369
0,963584582;-0,395043284;-3,150769472;0,976834297;3,32229028
0,973551223;-0,566228688;-4,959589005;0,650025785;5,033951881
0,983540793;-0,523133099;-5,778405666;-0,123301387;5,803347613
0,993536386;-0,262165099;-5,108029366;-0,92895025;5,198426984
1,00377814;-0,969651699;-2,871845007;-1,009155989;3,19470092
1,013581465;-1,794454217;-0,608127236;-1,150413871;2,216604779
1,023557425;-2,342726469;1,027112484;-0,830788016;2,689523395
1,033534702;-2,371456861;1,883039594;-0,511162043;3,070982317
1,043724616;-1,878251195;2,178723574;-0,270544797;2,889266074
1,053658974;-1,012747288;2,190694571;-0,16879122;2,419357404
1,0635492;-0,14844051;1,788468719;0,113724582;1,798218069
1,073541735;0,925358951;0,972045898;0,288501292;1,372732826
1,083549513;2,124854088;0,118512981;-0,015562311;2,128213431
1,093885641;2,688688517;-0,286107093;-0,292092621;2,719599476
1,103738315;2,33793807;-0,231040463;-0,130484;2,352947129
1,113653897;2,37624526;0,229843363;-0,129286885;2,390833454
1,123528484;1,881842494;1,505952835;1,128866076;2,661496521
1,133679163;2,070984364;3,01070857;0,666785181;3,714558494
1,143550883;1,302445769;4,800374508;-0,588973641;5,008677505
1,153477004;-0,025139118;7,086836815;1,250970364;7,196444599
1,163456991;-2,181117773;9,54807663;2,765302896;10,17693186
1,173692375;-4,034229755;16,4290123;6,349422932;18,06938367
1,18357051;-3,42131424;22,08052444;6,953958988;23,40112169
1,19356252;-1,462857246;31,17729378;9,311050415;32,57083448
1,20355501;0,567425787;38,89380646;10,30344677;40,23942306
1,213593781;1,689109325;39,2218132;9,003395081;40,27734902
1,223574468;0,719457626;39,2218132;3,541024208;39,38790554
1,233501218;-0,093373865;34,20595932;2,885013103;34,32753519
1,243516494;0,128089786;28,08039474;2,476801634;28,18970596
1,254194991;-0,107739076;26,30270004;2,706645012;26,4418147
1,263887964;0,626083732;24,92244339;3,557783842;25,18289084
1,273657002;0,254982471;22,77244949;3,646369219;23,0639433
1,283786209;0,302866518;18,3743;3,410540342;18,69059694
1,293660708;-0,378283858;13,60983944;3,169923067;13,9792432
1,303615458;-0,665588081;9,583989143;1,814804912;9,776981756
1,313773249;-0,881066203;6,107608318;0,693121374;6,209635598
1,323668369;-0,776918471;2,710236311;0,16639702;2,824300115
1,333519184;-0,444124401;-0,474051923;-0,207098454;0,681807508
1,3434573;0,195127442;-2,967612982;-0,181959331;2,979582307
1,353413728;-0,66798228;-6,874950409;-1,406593442;7,049088492
1,363465483;-0,533906996;-8,643068314;-2,315192938;8,963693708
1,373508652;-0,78050977;-8,949525833;-2,315192938;9,277032202
1,383782503;-0,791283667;-2,938882589;-0,59615624;3,101380818
1,393585991;-0,791283667;-2,938882589;-0,48243165;3,081541986
1,403494584;-0,154426008;-0,119710088;-0,116118781;0,227291594
1,413912239;-0,16759412;-0,112527482;-0,04070143;0,205929186
1,423717473;-0,339976639;-0,271741897;-0,110133275;0,448951124
1,433734101;-0,542286694;-0,70628953;-0,197521642;0,912104466
1,443914941;-0,671573579;-1,414973259;-0,432153404;1,624782127
1,453747079;-0,841561913;-2,213439465;-0,659602582;2,458173363
1,464172185;-0,894234359;-2,705447912;-0,490811348;2,891366333
1,473801873;-0,804451764;-2,85867691;-0,004788403;2,969713664
1,484043879;-0,605733037;-2,825158119;0,605733037;2,952176049
1,493747955;0,01316811;-2,527079821;0,85473001;2,667746092
1,50366843;1,698686123;-1,394622445;1,246181965;2,526554135
1,513655074;2,995146275;0,616506934;2,381033659;3,875603603
1,523832589;3,82713151;2,990357876;2,946065187;5,680534826
1,533676632;5,337872505;6,72890377;2,426523447;8,925191587
1,543605138;3,186682463;10,97142887;2,37624526;11,66935037
1,553523662;0,29568392;13,95939255;2,525882721;14,18915617
1,563527351;-2,498349428;15,65688229;3,373430252;16,20986565
1,573474665;-4,859032154;16,41105461;6,542156219;18,32301053
1,583592618;-4,297592163;17,54590797;6,564900875;19,22046067
1,593568496;1,110909581;22,09369278;5,440823555;22,78086789
1,603499951;8,70172596;33,28299332;9,787496567;35,76692282
1,613502215;17,93496513;39,2218132;6,505045891;43,61569932
1,623589362;-11,39280891;23,1363678;-7,878120899;26,96576346
1,633514238;-12,05839729;20,7505455;2,619256735;24,14229877
1,643551832;-5,248090267;24,81829453;1,63643682;25,41983714
1,653671775;2,343923569;29,60071182;-0,049081136;29,69340881
1,66355409;4,624400616;29,8042202;0,549469292;30,16585055
1,673582565;4,605247021;27,6829567;1,492784739;28,10307453
1,683681568;3,432088137;24,18024063;3,961206675;24,74175467
1,693620341;1,459265947;19,68273163;4,584896088;20,26229636
1,70374293;0,104147777;15,51203251;4,34787035;16,11018237
1,713618079;0,407014281;12,21761131;3,60327363;12,74438181
1,72358456;1,454477549;9,482235909;2,771288395;9,985406458
1,733561029;2,844311714;7,541735172;2,275688648;8,375358939
1,743590905;3,630806923;5,967547894;2,434903145;7,397509047
1,75358691;3,798400879;4,356249809;2,612074137;6,342530483
1,763922725;3,555389643;2,798821688;2,19189167;5,027781563
1,77394644;3,15795207;1,181538582;1,790862918;3,817837698
1,783694652;2,043451071;-0,756567717;1,250970364;2,512571161
1,793533992;0,790086567;-2,073378563;0,415394008;2,257362982
1,803449834;-0,785298169;-4,258087635;-1,109712481;4,469839518
1,813412599;-1,841141105;-4,983530998;-0,982819796;5,4028989
1,823544216;-2,159569979;-5,882553577;-1,098938584;6,362062959
1,833727081;-1,687912226;-5,054159641;-0,429759204;5,345864788
1,843559035;-1,59932673;-2,959233284;-0,934935749;3,491276625
1,853470298;-1,331176162;-2,012326479;-0,822408259;2,549086734
1,863497049;-1,033097982;-1,528697729;-0,343567938;1,876765067
1,874046597;-0,808043063;-1,138442874;0,294486821;1,426782484
1,883703715;-0,513556242;-0,737414122;0,85353291;1,239370013
1,893601258;-0,20590134;-0,276530296;1,066616893;1,120953149
1,903586722;0,081402861;0,246602774;1,146822572;1,175857715
1,91358047;0,459686726;0,590170741;1,027112484;1,270658666
1,923596432;0,681150377;1,07619369;0,793677866;1,500694256
1,933592851;0,694318473;1,465251446;0,506373644;1,698662476
1,944286685;0,645237386;1,690306425;0,565031588;1,895449232
1,954066128;0,794874966;1,662773132;0,440533102;1,894916915
1,963787178;0,810437262;1,479616642;0,627280831;1,799876441
1,973673979;1,59693253;1,350329757;0,77931267;2,231795734
1,983709906;2,108094692;1,874659896;2,869450808;4,023948421
1,993634327;1,332373261;2,201468468;0,962469101;2,747367593
2,003515184;1,280897856;4,195838451;-0,681150377;4,439563657
2,013444987;0,503979445;7,149086475;-1,456871748;7,313406047
2,023455305;-0,490811348;10,93192482;-2,388216257;11,20051128
2,033598928;-0,788889468;16,90186691;0,703895271;16,93490243
2,044082224;-4,513070107;35,57304764;12,8401041;38,08776435
2,053819054;-4,513070107;35,57304764;12,8401041;38,08776435
2,063714422;-0,363918662;39,09132767;6,432023048;39,61862259
2,0736507;10,06163311;27,97983742;-2,703053713;29,85656146
2,083519776;5,90529871;18,11333275;-1,695094824;19,12691095
2,09354507;1,953668594;16,3500042;-1,271321058;16,5153176
2,103562482;1,769315004;19,73301125;-2,30561614;19,94587863
2,113567621;3,076549292;24,64351845;-3,072957993;25,02421283
2,123556831;2,519897223;28,18813324;-3,606864929;28,52946218
2,133529144;0,052672438;28,12588501;-2,962824583;28,2815578
2,143563816;-2,184709072;25,71133232;-1,428141356;25,84347405
2,15346847;-2,828749418;23,67625999;0,228646263;23,84574154
2,163448141;-2,628833532;21,39698029;1,44968915;21,60655293
2,173495971;-2,164358377;19,2278347;1,972822189;19,44957845
2,183537178;-0,16759412;16,55351067;3,155557871;16,85242857
2,193570437;1,279700756;13,40513515;4,054580688;14,06324668
2,203587588;2,400187254;10,35611916;5,278017521;11,86876454
2,2135552;3,700238705;6,953958988;5,64552784;9,691300051
2,223468302;4,335899353;3,543418407;4,264073372;7,038334954
2,233423682;5,738901615;0,284909993;1,776497602;6,014325331
2,243410043;3,386598349;-3,600879431;-1,021126986;5,047581735
2,253429005;4,557363033;-4,449624062;-1,632845521;6,575324829
2,263504684;3,193865061;-6,606799603;-1,070208192;7,415923448
2,273489789;0,14844051;-7,62194109;-1,148019671;7,709343015
2,283446378;-1,060631394;-5,596446514;-0,899022758;5,766575627
2,293434829;-3,037044764;-1,70946002;-0,093373865;3,486346674
2,303419679;-2,272097349;-0,393846184;-0,306457818;2,326253979
2,31339838;-1,771709204;0,234631762;-0,359130263;1,822904307
2,323398825;-1,326387763;0,380678058;0,047884032;1,380765426
2,333385219;-1,665167332;0,234631762;0,311246216;1,710177919
2,343445786;-1,691503525;-0,416591108;0,04070143;1,742523725
2,353427502;-1,564610839;-1,138442874;-0,197521642;1,94501261
2,363407735;-1,431732655;-1,835155606;-0,174776718;2,334138255
2,374122539;-1,130063176;-2,239775658;0,011971008;2,508740936
2,384005982;-0,626083732;-2,205059767;0,061052144;2,293032224
2,393711245;-0,016759412;-1,758541107;0,004788403;1,758627485
2,40356708;0,695515573;-0,869095206;0,523133099;1,229933587
2,413541768;1,096544385;0,345962137;0,40821138;1,220137664
2,424199347;1,26413846;1,686715126;-0,861912608;2,277267509
2,433786418;1,510741234;3,614047527;-0,06584055;3,917654092
2,443610474;1,939303398;5,975927353;2,655169725;6,82074275
2,453512007;1,308431268;9,040505409;5,53419733;10,6803591
2,463510091;0,527921498;12,03086376;5,074510574;13,06793945
2,47355981;-0,799663365;14,98171711;2,910152197;15,28267957
2,483554488;-2,079364061;17,41662025;1,625662923;17,61548171
2,494307113;1,199495077;23,18066025;10,74398041;25,57762524
2,503849103;1,199495077;23,18066025;10,74398041;25,57762524
2,513696582;2,895787001;32,00688553;-2,525882721;32,2367242
2,523643629;-7,638700485;27,70091438;-2,650381327;28,85680031
2,533606814;-13,96178722;23,07052803;-0,799663365;26,97814352
2,545262755;3,184288263;22,41930389;5,422866821;23,28459498
2,554663616;12,02128696;25,46832085;-11,34971333;30,36383868
2,564092693;8,602366447;24,92244339;-14,63814926;30,15633112
2,574969236;-2,513911724;27,3693161;0,359130263;27,48687306
2,584335503;-11,48977375;25,04335022;4,157531261;27,86519975
2,593929652;-5,489904404;23,96595955;4,356249809;24,96964517
2,603674877;1,310825467;21,63041496;3,514688015;21,95327189
2,61354499;3,356670856;18,40781975;4,771644115;19,31019561
2,623561322;0,885854602;16,44337654;3,622427225;16,86094154
2,633484801;3,221398354;15,32289124;1,213860273;15,70483556
2,643434405;4,9763484;12,87362289;2,533065319;14,0324848
2,653448243;3,867832899;10,60152531;2,324769735;11,52202345
2,663428548;2,540247917;9,603142738;1,260547161;10,01310087
2,673520914;1,800439715;8,82263279;0,985213995;9,058205072
2,683525326;1,468842745;7,825448036;1,289277673;8,065815079
2,693455475;0,797269166;6,953958988;1,8579005;7,241890499
2,705064664;0,226252064;5,272032261;2,481590033;5,831278011
2,714249649;0,226252064;5,272032261;2,481590033;5,831278011
2,723840501;0,738611221;3,313575268;2,341529369;4,124086248
2,733619182;1,104924083;0,657208383;2,627636433;2,92527833
2,743511153;0,159214407;-4,620809078;1,368286252;4,821766588
2,753454873;-0,623689532;-7,044938564;0,41060558;7,084401524
2,763424962;-1,102529883;-9,006986618;-0,392649084;9,082706281
2,773422011;-1,241393566;-8,898050308;-0,843956113;9,023780759
2,783398062;-1,22822547;-6,114790916;-0,652419984;6,270953483
2,793461426;-1,180341482;-3,484760523;-0,718260527;3,748687784
2,803646103;-1,222239971;-1,590947032;-0,703895271;2,126135357
2,813549353;-1,242590666;-0,336385339;-0,487220049;1,376433811
2,823559077;-1,124077678;0,536301196;0,150834709;1,254559966
2,833691282;-0,788889468;1,157596469;0,581790984;1,516857583
2,843553531;-0,608127236;1,544260144;0,766144514;1,827986746
2,853479629;-0,617704034;1,622071624;0,599747539;1,836401845
2,86351346;-0,762553215;1,41257906;0,138863698;1,611257314
2,873547406;-0,82001406;1,091755986;-0,320823014;1,40259816
2,88357089;-0,648828685;0,830788016;-0,654814184;1,240954877
2,893561929;-0,299275219;0,803254664;-0,565031588;1,026666649
2,903536537;-0,196324542;0,968454599;0,447715729;1,084848843
2,913596262;0,189141929;1,323993564;0,949300945;1,640093263
2,923599693;1,085770488;2,322375536;1,510741234;2,975678873
2,933550835;1,595735431;3,839102507;1,240196466;4,338567378
2,943567318;1,26294136;5,543774128;1,042674899;5,780624828
2,953515533;0,876277804;10,37886429;-2,796427488;10,78465082
2,963884458;0,239420176;15,10861015;-0,159214407;15,1113458
2,973719416;-0,418985307;21,95842171;3,586514235;22,25333496
2,983701061;-1,936909199;32,04040527;5,950788498;32,64584309
2,994993785;-0,539892495;39,21821976;6,624756336;39,77747656
3,004829131;2,755726099;39,2218132;5,538985729;39,70673772
3,014616127;2,294842243;38,1623764;3,587711334;38,39928315
3,024043531;3,210624456;31,55318451;1,686715126;31,76092836
3,033782312;5,23611927;28,74478531;-1,726219416;29,26874546
3,043590035;3,682282209;29,59951591;-3,040636063;29,98226163
3,053512022;0,827196658;32,01885605;-2,432508945;32,12177605
3,063570541;0,530315697;31,90752602;-0,618901134;31,91793367
3,07350678;1,344344258;28,30425262;0,565031588;28,34179315
3,083907608;1,349132657;23,87976837;0,857124209;23,93320201
3,093709506;0,568622887;19,84434128;1,006761789;19,87799744
3,103547513;0,470460624;15,96094608;1,434126854;16,0321506
3,113556933;-0,114921682;12,82095051;2,239775658;13,01562806
3,123484768;-0,40821138;12,50371838;2,462436438;12,75041972
3,133516836;0,621295333;10,6158905;3,924096584;11,33497565
3,143518209;1,198297977;6,754043102;4,580107689;8,24805448
3,153450953;-0,025139118;2,776076794;4,358644009;5,167689226
3,163498028;-1,230619669;3,116053581;2,590526342;4,234978326
3,173511331;0,982819796;0,585382342;3,043030262;3,250944542
3,183560378;1,000776291;-6,596025467;1,273715258;6,792014112
3,193771152;0,507570744;-7,184999466;-0,104147777;7,203658247
3,203580211;0,767341673;-6,185420036;-0,736217022;6,276165212
3,213588959;-2,146401882;-7,24724865;-1,059434295;7,632303391
3,223509036;-1,136048675;-4,410119534;0,107739076;4,55536701
3,233708397;-1,464054346;-2,424129248;0,1316811;2,834995176
3,243647922;-1,238999367;-0,940921247;-0,269347697;1,578923813
3,253641877;-0,253785372;-0,226252064;-0,077811554;0,348785965
3,263540182;0,436941803;-0,099359371;0,195127442;0,488738317
3,273469699;0,561440289;-0,062249243;0,199915841;0,599213243
3,283425343;0,532709897;-0,113724582;0,08379706;0,55112164
3,293512801;0,430956304;-0,365115762;0,025139118;0,565389097
3,303591035;0,294486821;-0,745793819;0,260968;0,843229035
3,313558642;0,099359371;-1,174355984;0,305260718;1,217443373
3,323490857;-0,055066638;-1,423352957;0,192733243;1,437397675
3,333459542;-0,266953498;-1,346738458;0,159214407;1,382142493
3,343416723;-0,512359142;-0,968454599;0,310049117;1,138660027
3,353471798;-0,725443125;-0,280121595;0,937329948;1,217917594
3,363430221;-0,772130072;0,588973641;1,909375906;2,142146388
3,373417558;-0,827196658;1,464054346;2,364274263;2,9012932
3,383400367;-0,85353291;2,238578558;2,206256866;3,256888354
3,393404974;-0,276530296;3,193865061;0,958877802;3,346145494
3,403501601;0,274136096;6,045359135;0,790086567;6,102929989
3,413535123;0,061052144;9,248801231;2,680308819;9,629543444
3,423490686;-0,678756177;14,02403641;3,962403774;14,58886393
3,433453701;0,433350503;22,20981216;5,209783077;22,81677867
3,444354558;0,099359371;31,74232674;7,977479935;32,72957936
3,453864205;0,436941803;35,97527313;3,191470861;36,11920101
3,465021216;6,928819656;32,11941147;2,63841033;32,9640159
3,474288211;6,484695435;28,53888512;4,357447147;29,58896051
3,483945407;4,067748547;26,26439285;1,254561663;26,60712001
3,493674864;0,926556051;26,17700386;-1,666364431;26,24634846
3,503528499;-2,403778553;28,56043243;-0,85473001;28,67415239
3,51348792;-3,397372246;31,53522682;1,401805043;31,74866495
3,525133542;-1,207874775;31,1497612;2,087743998;31,24300337
3,534749062;1,241393566;29,1266613;1,787271619;29,20783793
3,54420828;3,312378168;28,65620041;2,695871115;28,97270081
3,554029217;2,438494444;25,29474068;4,225766182;25,7609639
3,563777602;2,621650934;21,13361931;4,526238441;21,77130573
3,573726222;2,633621931;17,78173637;3,621230125;18,33683235
3,583554568;2,421735048;15,00925064;3,579331636;15,61902751
3,593525148;2,382230759;12,59350109;3,065775394;13,17840172
3,603447573;2,500743628;10,42435455;2,41694665;10,98920005
3,61349803;1,866280198;8,622717857;2,093729496;9,067412433
3,623524144;1,429338455;7,273584843;2,018311977;7,68255349
3,634314753;0,860715508;4,429273129;1,30005157;4,695681603
3,64392498;0,555454791;2,938882589;0,912190855;3,126923896
3,653703557;0,240617275;1,490390539;0,616506934;1,630718073
3,663547194;0,035913024;-0,067037649;0,85592711;0,859299138
3,673558778;-0,337582439;-1,616086125;1,359906554;2,138934806
3,683570378;-0,944512546;-3,126827478;1,507149935;3,597312185
3,693569849;-1,610100627;-5,143942356;0,683544576;5,433212694
3,703482944;-1,948880196;-7,006631374;-0,217872351;7,275883836
3,713451341;-1,908178806;-7,149086475;-0,918176353;7,456113707
3,723564367;-0,873883605;-5,899312973;-0,254982471;5,969135798
3,733548797;-0,390254885;-4,431667328;0,022744916;4,448875309
3,745344736;-0,023942016;-3,009511471;-0,090979666;3,010981536
3,75441307;0,428562105;-1,810016513;-0,260968;1,878278348
3,763910466;0,672770679;-0,958877802;-0,197521642;1,187889652
3,773659789;0,63087213;-0,356736064;0,158017308;0,741774719
3,78359294;0,514753342;0,141257897;0,645237386;0,837410342
3,793592459;0,33518824;0,63087213;1,255758762;1,444742493
3,803583494;0,229843363;1,091755986;1,66995573;2,008360338
3,813490444;0,142454997;1,252167463;1,483207941;1,94630999
3,823527461;-0,075417355;1,306037068;1,066616893;1,687925412
3,833461881;-0,244208574;1,280897856;0,553060591;1,416408544
3,843426434;-0,48482585;1,18991828;0,124498487;1,290914982
3,853513971;-0,81642276;1,170764685;-0,172382519;1,437689745
3,863552167;-0,403422982;1,272518158;0,350750536;1,380245812
3,873591525;0,549469292;1,261744261;0,208295554;1,391870008
3,88350123;1,772906303;1,507149935;1,923741102;3,019184909
3,893545744;2,697068214;2,52947402;2,445677042;4,433255233
3,903573131;2,264914751;3,945644379;3,281253338;5,609329003
3,913632658;1,48560214;5,805939198;3,845088005;7,120438572
3,923737474;0,530315697;8,616731644;3,663128614;9,378049382
3,933637668;-1,059434295;12,36365795;3,416525841;12,87070658
3,943528312;-1,693897724;18,58738518;3,142389774;18,92709145
3,95354241;-1,884236693;28,80344391;5,249287128;29,33843459
3,963469069;5,064933777;39,2218132;8,617929459;40,47558391
3,97373344;-1,684320927;39,2218132;4,040215492;39,46531273
3,983655625;1,929726601;37,34835052;-0,222660765;37,398833
3,993528775;2,442085743;29,45347023;3,543418407;29,76619736
4,003529491;1,113303781;33,36320114;2,456450939;33,47202992
4,013593859;0,530315697;37,06703186;1,230619669;37,09124574
4,023795496;1,048660398;34,4585495;2,121262789;34,53970292
4,033687877;1,119289279;29,70366287;2,810792685;29,85734335
4,045002479;1,000776291;21,16833496;4,08570528;21,58223681
4,054225848;1,000776291;21,16833496;4,08570528;21,58223681
4,063908288;0,307654917;17,8631382;4,204218388;18,35379552
4,073962034;-1,233013868;11,75912189;4,303577423;12,58245006
4,083781094;-1,59812963;9,051279068;4,757278919;10,34946249
4,093662838;-1,576581836;6,238092422;4,521450043;7,864026821
4,103618371;-0,836773515;4,290409565;2,521094322;5,046159008
4,113585382;0,288501292;2,276885748;1,78128612;2,905240429
4,123843185;0,974440098;-0,572214186;1,44968915;1,83808629
4,13371206;0,992396593;-3,415328741;1,051054597;3,708643576
4,143655977;1,44968915;-5,324704647;-0,239420176;5,523712541
4,153581737;0,811634362;-8,164227486;-1,912967205;8,424535851
4,163571545;0,616506934;-8,680178642;-2,446874142;9,039511885
4,173915745;-0,809240162;-7,121552944;-1,715445518;7,369812705
4,183658809;-1,286883354;-3,409343243;-0,717063427;3,714009972
4,195023284;-0,981622696;-0,902614057;-0,202310041;1,348786345
4,204227995;-0,454898328;-0,026336219;0,086191259;0,463740248
4,213852226;0,032321721;0,04189853;0,353144765;0,357087392
4,223620956;0,258573771;-0,088585466;0,475249052;0,548242137
4,233592092;0,308852017;-0,234631762;0,470460624;0,609733409
4,243522946;0,274136096;-0,246602774;0,442927301;0,576322931
4,253551029;0,415394008;-0,354341865;0,391451985;0,671822146
4,263557649;0,547075093;-0,760159016;0,575805485;1,099402039
4,273498224;0,48123455;-1,148019671;0,729034424;1,442576532
4,283532262;0,390254885;-1,371877551;0,719457626;1,597487454
4,293484411;0,338779539;-1,41257906;0,708683729;1,616287042
4,303538663;0,398634583;-0,884657502;0,569819987;1,125265855
4,313552872;0,326808542;-0,150834709;0,77931267;0,858418995
4,323482138;0,105344877;0,468066424;0,729034424;0,872739888
4,333517761;-0,104147777;1,121683478;0,457292527;1,215786593
4,343454687;-0,361524463;1,804031014;0,74459672;1,984855691
4,353449191;-0,36990416;2,349909067;1,356315255;2,738337595
4,363887745;-0,316034615;2,871845007;0,78170687;2,993064859
4,37364184;-0,682347476;3,689464808;1,021126986;3,888502149
4,383599981;-1,493981838;4,90811348;0,654814184;5,172073209
4,393509599;-1,404199243;7,393294811;-0,002394202;7,525462737
4,403540085;-3,282450438;10,70327854;0,112527482;11,19586151
4,413500406;-3,187879562;17,07544708;1,939303398;17,47839715
4,423446296;-0,697909772;33,67923355;9,646238327;35,04037335
4,433485517;-0,888248801;39,2218132;5,558139324;39,623636
4,443523539;16,29852867;39,2218132;9,746794701;43,57743309
4,453536612;12,54202557;36,5019989;-3,764882088;38,77979714
4,463479711;2,827552319;28,12827873;-8,334216118;29,4729414
4,473443136;-7,568071365;26,5935955;-1,379060149;27,68387316
4,483412947;-9,961075783;30,83492279;4,259284973;32,68267129
4,493477488;-3,658340216;35,34440231;4,872200489;35,8657018
4,503482884;2,122459888;34,44298553;2,236184359;34,58069706
4,513520269;5,448006153;29,60669899;-0,490811348;30,10777793
4,523911227;1,201889277;19,99757004;1,890222192;20,12263117
4,533751862;-0,574608386;17,45492744;2,883816004;17,70087743
4,543675565;-1,685518026;15,23670006;3,665522814;15,76179105
4,553525516;-2,133233786;12,67370701;3,957615376;13,44753714
4,563529111;-2,129642487;9,993397713;4,297592163;11,08479469
4,573473591;-1,297657371;7,320271492;4,297592163;8,587175774
4,583513591;0,090979666;4,665102005;3,256114244;5,689792087
4,593461612;1,608903527;2,207453966;2,110488892;3,451896136
4,603475961;2,764105797;0,258573771;1,452083349;3,132999729
4,613552276;3,01429987;-1,444900751;1,414973259;3,629861045
4,623511007;2,67552042;-3,11964488;1,877054095;4,518177262
4,633827638;1,054645896;-6,42484045;1,145625472;6,610847941
4,643685042;1,052251697;-8,616731644;-0,023942016;8,680775949
4,653667572;-0,107739076;-9,782708168;-1,110909581;9,846172196
4,663534748;-1,259350061;-9,008183479;-1,323993564;9,191642461
4,673461956;-1,535880446;-7,523778915;-1,04147768;7,749248588
4,683492019;-1,48560214;-5,006275654;0,146046311;5,224092186
4,693449472;-1,30005157;-3,624821424;0,448912829;3,876981709
4,703470073;-0,733822823;-3,23576355;0,402225882;3,342221917
4,713546676;-0,104147777;-2,8981812;0,513556242;2,945172498
4,723509639;-0,610521436;-3,186682463;0,477643251;3,279607388
4,733559219;-1,871068597;-1,529894829;-0,064643443;2,417778868
4,743492785;-1,394622445;0,44651863;0,005985504;1,464372383
4,753508475;0,128089786;1,040280581;0,652419984;1,234602169
4,763740825;0,758961916;2,30681324;0,648828685;2,513640622
4,77359062;0,738611221;3,530250311;0,824802458;3,699799034
4,783588069;1,201889277;4,602852821;1,22702837;4,912880067
4,79357333;1,237802267;4,517858505;1,130063176;4,818738705
4,803477237;1,30124867;3,904942989;0,878672004;4,208787514
4,813544763;1,59693253;3,319560766;0,738611221;3,757023253
4,823459229;1,721431017;2,853888512;1,423352957;3,624077541
4,833540056;1,543063045;2,401384354;0,687135875;2,935957439
4,843573751;1,499967337;2,369062662;-0,547075093;2,856860351
4,853630755;1,250970364;3,002328873;-2,030282974;3,834182373
4,863520767;0,887051702;4,144362926;-3,08373189;5,241374548
4,873451528;0,618901134;5,588066578;-3,08133769;6,411253283
4,883427403;0,586579442;8,44554615;-3,041833162;8,995780911
4,893435627;0,126892686;16,17761993;0,122104287;16,17857837
4,903462265;1,303642869;34,85718155;14,65730286;37,83595006
4,914186834;1,653196216;39,2218132;12,87601662;41,31434972
4,923790786;-5,752069473;39,2218132;7,682993412;40,37902081
4,933605991;2,726995707;36,10695648;-4,440047264;36,48099275
4,943591354;3,324349165;29,86766624;1,288080573;30,07969308
4,95371453;3,242946148;32,84605408;2,929305792;33,13549155
4,963661587;2,52827692;34,6752243;2,085349798;34,82975809
4,973625115;2,716221809;27,88167572;0,776918471;28,02444119
4,983605004;0,476446152;23,1172142;3,207033157;23,34347136
4,99362323;-0,088585466;19,04467773;4,262876034;19,51613972
5,003568958;-1,069011092;14,3424654;3,292027235;14,75420421
5,013480285;-1,465251446;11,13543224;2,711433411;11,55407652
5,0234516;-1,33716166;8,544905663;2,443282843;8,987382552
5,03351658;-1,182735682;6,344634533;1,89620769;6,72672689
5,043620893;-0,830788016;4,19464159;1,514332533;4,536345425
5,053598362;-0,652419984;1,814804912;1,545457244;2,471357278
5,064974596;-0,032321721;-0,584185243;1,171961784;1,309889887
5,074215292;0,48243165;-3,031059265;0,70628953;3,149429387
5,083818947;1,387439847;-4,947618008;-0,264559299;5,145279866
5,093636061;1,713051319;-6,959944248;-1,07739079;7,248181819
5,103611258;1,352723956;-8,531737328;-1,174355984;8,717770122
5,114535758;-0,055066638;-8,786720276;-0,864306808;8,829298488
5,124000873;-1,030703783;-5,938817501;-0,18674773;6,030487403
5,133789732;-1,333570361;-3,035847664;0,108936176;3,317626868
5,143923328;-1,255758762;-1,417367458;0,511162043;1,961414595
5,153664658;-0,897825658;-0,785298169;0,707486629;1,386838656
5,164997562;-0,426167905;-0,512359142;0,946906745;1,157913364
5,174197321;-0,426167905;-0,512359142;0,946906745;1,157913364
5,183874701;-0,104147777;-0,51954174;0,81642276;0,973301856
5,193838547;0,40940848;-1,083376288;0,311246216;1,199247136
5,203634455;0,494402647;-1,440112352;0,228646263;1,539687202
5,213608268;0,367509961;-1,729810715;0,36990416;1,806692494
5,223579185;-0,196324542;-1,942894697;0,587776542;2,039329398
5,233569435;-0,196324542;-1,838746905;1,071405292;2,137157647
5,243502737;-0,338779539;-1,680729628;1,194706678;2,089724313
5,253472357;-0,712275028;-1,437718153;0,916979253;1,848031427
5,263528;-0,894234359;-1,101332784;0,998382092;1,734749489
5,273562306;-0,861912608;-0,857124209;-0,094570965;1,219220621
5,283505969;-0,521935999;-0,389057785;-1,370680451;1,517414923
5,293757046;0,33399114;0,531512797;-1,867477298;1,97015923
5,304975006;0,867898107;1,613691926;-1,318008065;2,257076431
5,31427159;3,889380693;3,936067581;-0,551863492;5,560976847
5,323860429;0,889445961;4,626794815;-2,057816267;5,141298685
5,333721151;-6,323086739;10,41118622;3,79361248;12,75796692
5,343653647;0,158017308;20,80082512;12,68328381;24,3631891
5,354094999;6,515820026;37,78648758;7,256825447;39,02481351
5,363754582;14,40112305;39,2218132;1,514332533;41,80952259
5,37358492;2,389413357;37,41059875;3,983951569;37,69793185
5,383570193;-9,198522568;23,04059982;7,232883453;25,84176195
5,393498376;2,294842243;23,05616188;4,364629745;23,57759306
5,403607989;4,661510944;30,50931168;-0,434547603;30,86643185
5,414458837;-0,841561913;36,23504639;0,162805721;36,24518339
5,424240876;0,342370838;30,21482468;1,845929503;30,27309538
5,433901635;1,900996208;24,14552498;2,430114746;24,34184916
5,443782639;0,350750536;20,48598671;2,729389906;20,6699842
5,453653532;-0,842759013;17,83081627;3,315969467;18,15609829
5,463534082;-1,453280449;14,65371132;3,403357744;15,11377264
5,473455712;-1,063025594;11,47181702;3,039438963;11,91514995
5,483422099;1,393425345;8,841787338;2,391807556;9,264965241
5,493480632;2,367865562;5,604825974;1,851915002;6,360066878
5,503506278;-0,107739076;2,136825085;3,379415751;3,999759989
5,513467096;-1,793257117;0,920570552;4,267664433;4,719764924
5,523526073;-1,503558636;0,153228909;1,829170108;2,372768626
5,53386952;0,654814184;-0,672770679;1,417367458;1,700097795
5,545030358;3,593696833;-3,779247284;1,909375906;5,55365495
5,555591558;2,479195833;-8,705317497;0,836773515;9,09005801
5,573443071;0,875080705;-10,35971069;-0,944512546;10,43941932
5,583905987;0,858321309;-9,770736694;-2,249352455;10,06298154
5,593815675;0,523133099;-8,935160637;-2,513911724;9,296801386
5,6034638;-1,192312479;-4,338293552;-1,476025343;4,735087202
5,613496404;-1,192312479;-4,338293552;-1,476025343;4,735087202
5,623637394;-0,978031397;-3,141192675;-1,125274777;3,477050497
5,633578175;-0,620098233;-2,325966835;-0,791283667;2,533924501
5,643514269;-0,634463429;-1,677138329;-0,265756398;1,812722615
5,654133279;-1,074996591;-0,560243189;1,07619369;1,621012943
5,663375206;-1,383848548;-0,128089786;1,250970364;1,869858457
5,673453539;-0,963666201;0,986411095;0,837970614;1,613646227
5,683891196;-0,226252064;2,466027737;0,092176765;2,478099948
5,693499894;-0,547075093;3,156754971;0,165199921;3,208065479
5,70352755;-0,459686726;3,414131641;0,657208383;3,507068521
5,714433852;-0,351947635;3,138798475;0,988805294;3,309631236
5,723559894;-0,458489627;2,610877037;0,909796655;2,802609783
5,73353031;-0,33279404;2,039859772;0,676361978;2,174682801
5,743540779;-0,136469498;1,44849205;1,150413871;1,854779021
5,753402654;0,313640416;0,776918471;1,673547029;1,871558784
5,763589373;0,661996782;0,432153404;1,806425214;1,971843898
5,773423852;1,431732655;0,782903969;2,333149672;2,8471713
5,783402029;1,837549806;1,904587507;3,253720045;4,194131256
5,793655414;1,952471495;3,42011714;3,659537315;5,376017071
5,803436508;2,334346771;5,801150799;3,320757866;7,080251284
5,81338781;2,966415882;10,699687;3,615244627;11,67702526
5,823548383;3,331531763;23,62358856;10,79306126;26,1851716
5,833522237;9,526528358;38,86148453;16,70554161;43,35948388
5,843393331;-3,721786499;39,2218132;11,91115379;41,15917772
5,853380154;-6,435614109;39,2218132;-6,080075264;40,20864428
5,863561196;-0,59256494;32,73352432;4,910507679;33,10510283
5,873580362;0,286107093;31,16173172;5,6491189;31,67093187
5,883547289;0,89184016;34,53276825;2,409764051;34,62823161
5,893613279;1,758541107;30,23397827;4,602852821;30,63286084
5,903417602;0,660799682;23,94321442;4,574122429;24,38517519
5,913693956;-0,324414343;17,42619705;2,930502892;17,67386306
5,923548539;1,235408068;12,82334423;2,23019886;13,07433277
5,933498279;2,580949545;8,803479195;2,539050817;9,518893084
5,943598591;1,456871748;6,036979675;3,398569345;7,079397749
5,956400154;-1,204283476;3,557783842;4,145560265;5,594085668
5,964893748;-0,463278025;1,551442742;1,419761658;2,153444747
5,973424477;-0,20350714;0,397437483;0,278924495;0,526469926
5,983543644;-0,70628953;-1,373074651;1,910573006;2,45651544
5,993491404;-0,987608194;-3,424905539;1,799242616;3,992821294
6,003830414;-0,998382092;-5,218162537;0,33399114;5,323301339
6,01355531;-0,81881696;-6,562506676;-1,109712481;6,705849452
6,023611612;-1,684320927;-8,582015991;-1,8590976;8,941150896
6,033565727;-0,875080705;-7,688978672;-1,043871999;7,808702069
6,043621144;-1,080982089;-5,102043629;-0,384269387;5,229439208
6,053381039;-0,866701007;-2,694674015;-0,293289721;2,845778899
6,063631768;-0,497993946;-1,720233917;-0,08379706;1,792825883
6,073859268;0,301669419;-1,471236944;-0,034715924;1,502247576
6,083506768;0,648828685;-1,357512355;-0,056263741;1,505650711
6,093603696;0,876277804;-1,175553083;0,165199921;1,47549275
6,103376977;1,15161097;-1,033097982;0,239420176;1,565509913
6,113422758;1,101332784;-1,177947283;-0,122104287;1,617220813
6,123448591;0,731428623;-1,26653266;-0,276530296;1,488476339
6,133402758;0,301669419;-1,327584863;-0,14963761;1,369626745
6,143505466;-0,404620081;-1,316810966;-0,050278235;1,378490635
6,153552446;-0,767341673;-1,218648672;0,019153614;1,44023772
6,164175675;-0,597353339;-0,542286694;0,527921498;0,964161282
6,173494268;-0,569819987;0,175973818;0,952892303;1,124128704
6,18351906;-0,169988319;0,656011283;0,087388359;0,683288781
6,193416143;0,349553436;1,199495077;-0,835576415;1,503051559
6,203638383;1,053448796;2,002749681;-0,264559299;2,27832225
6,213549112;1,978807688;2,997540474;1,098938584;3,756140941
6,223530362;2,923320293;3,981557369;2,086546898;5,362115122
6,233589425;4,952406406;5,846640587;2,11767149;7,949469662
6,24342156;8,176198959;10,12747288;0,039504327;13,01604767
6,253424946;3,870227098;19,68273163;2,965218782;20,27760106
6,263607706;-2,097320795;38,53826904;21,5849247;44,22110254
6,273422914;-4,230554581;39,2218132;12,85207462;41,49004754
6,283522862;-0,963666201;39,17632294;-8,529343605;40,10564342
6,293656716;0,963666201;33,20159149;-6,7636199;33,89721057
6,303391091;-1,89620769;29,33615303;10,68651962;31,27950095
6,313414789;-1,661576033;31,453825;10,0508585;33,06242124
6,323392706;3,27167654;34,60100174;2,716221809;34,86131165
6,333404998;2,084152699;28,43712997;0,526724398;28,51826594
6,343390675;-0,427365005;24,58485985;3,183091164;24,7937501
6,353376612;-0,768538773;21,68069267;3,462015629;21,96881059
6,363587602;-0,329202741;19,21107483;2,97479558;19,44281819
6,373821977;0,174776718;16,38232422;3,754108191;16,80786786
6,383392654;1,094150186;12,99333286;4,668693542;13,84993007
6,393398227;1,26533556;9,619902611;4,551377296;10,71721212
6,403396456;0,475249052;6,567295074;3,49553442;7,454796251
6,413511873;-0,48362875;3,427299738;2,254140854;4,130548541
6,423404164;0,059855044;2,239775658;1,308431268;2,594642558
6,433500987;1,617283225;1,359906554;0,762553215;2,246427892
6,443633748;2,711433411;-0,1316811;1,150413871;2,948332262
6,453622966;1,827973008;-3,930082083;1,987187386;4,768222331
6,464774373;1,312022567;-6,568492413;1,519120932;6,868349452
6,473641195;1,006761789;-8,412027359;-0,318428814;8,478040487
6,483501716;0,530315697;-9,97065258;-2,33793807;10,25480873
6,493435779;-0,071826048;-10,06163311;-2,539050817;10,3773021
6,503574112;-1,244984865;-8,031349182;-1,831564307;8,331097455
6,513622654;-1,776497602;-5,057751179;-1,252167463;5,50497176
6,523939945;-1,479616642;-3,168725967;-1,11689508;3,671177506
6,533584164;-0,749385118;-2,00753808;-0,824802458;2,296102414
6,543558435;-0,214281052;-1,235408068;-0,235828862;1,275838828
6,553422914;-0,076614454;-0,638054729;0,37229836;0,742690837
6,563645622;0,14724341;-0,079008654;0,422576606;0,454416084
6,573692341;-0,039504327;0,430956304;0,240617275;0,495157148
6,583570102;0,775721371;1,790862918;-0,300472319;1,974643576
6,594349789;0,068234749;2,209848166;-0,113724582;2,213824333
6,603407081;-0,563834488;2,299630642;0,535104096;2,427456861
6,613417758;-1,082179189;2,370259762;0,416591108;2,638710156
6,623409112;-0,916979253;2,572569609;0,175973818;2,736774037
6,633549477;-0,865503907;2,512714624;0,18674773;2,664152119
6,643590831;-0,784101069;2,312798738;0,25977087;2,455877317
6,653504008;-0,233434662;2,37744236;1,091755986;2,626529088
6,663584164;0,599747539;2,248155355;1,918952703;3,016003828
6,674144425;1,201889277;2,050633669;3,434482336;4,176757737
6,683554893;1,48799634;2,608482838;4,432864666;5,354307142
6,69360682;0,944512546;3,377021551;3,161543369;4,721412393
6,703435831;0,912190855;5,196614742;2,029085875;5,652794567
6,713677081;1,617283225;8,281543732;3,828328609;9,265833559
6,723528956;1,379060149;14,02882481;6,221333027;15,40826781
6,73360031;2,625242233;29,84492111;19,9844017;36,013713
6,743455362;10,07599831;39,2218132;9,210494041;41,52962284
6,75355031;-5,445611954;39,2218132;6,964732647;40,20588043
6,763622497;-4,830301762;37,75177383;-4,487931252;38,32322755
6,773640883;-1,45088625;29,94667435;3,375824451;30,17125397
6,783597654;-1,121683478;34,8224678;1,043871999;34,85616311
6,793418695;0,374692559;32,47255707;3,645172119;32,67865721
6,803386508;0,881066203;27,91040611;5,116408825;28,38916495
6,813376299;1,52630353;21,26769447;5,665878296;22,06233459
6,824018539;0,760159016;15,1720562;6,24168396;16,42339032
6,833399424;0,550666392;10,7822876;5,58088398;12,15348614
6,845233435;0,349553436;7,139509678;4,650736809;8,527844916
6,85366932;-0,310049117;4,953603268;4,56933403;6,746341917
6,867507029;-0,525527298;3,023876667;3,912125587;4,972397375
6,883428747;-1,109712481;-0,29688102;2,209848166;2,490588092
6,893497393;-0,311246216;-3,45722723;1,601720929;3,82293137
6,903477966;0,751779318;-6,222530365;0,153228909;6,269651935
6,913542549;1,452083349;-7,801506042;-1,11450088;8,013373497
6,923839008;0,729034424;-10,34414864;-2,500743628;10,66708118
6,933592081;0,243011475;-9,54807663;-2,534262419;9,88166524
6,943567133;-0,750582218;-6,179434776;-1,948880196;6,522800153
6,953524893;-1,001973391;-2,82036972;-1,335964561;3,277687804
6,963401195;-0,766144514;-1,161187768;-0,949300945;1,684193199
6,973737445;-0,243011475;-0,902614057;-0,615309834;1,119094681
6,98359807;0,119710088;-0,721851826;-0,468066424;0,868611962
6,996373591;0,405817181;-0,472854823;-0,001197101;0,623121738
7,013713851;0,158017308;-0,810437262;0,108936176;0,832853598
7,023916195;-0,080205753;-1,11569798;0,20590134;1,137369908
7,033582133;-0,232237563;-1,357512355;0,349553436;1,420901715
7,04353807;-0,389057785;-1,557428241;0,656011283;1,734156708
7,05350807;-0,357933164;-1,555034041;1,031900883;1,900280624
7,063569216;-0,099359371;-1,070208192;1,243787766;1,643844842
7,07423531;-0,092176765;-0,549469292;1,296460271;1,411106762
7,083605726;-0,144849196;-0,385466486;1,250970364;1,317001349
7,09338807;-0,201112941;-0,40821138;0,9660604;1,067874357
7,103425101;0,04309563;-0,390254885;0,390254885;0,553583764
7,113590726;0,416591108;-0,144849196;-0,687135875;0,816507901
7,123400622;0,805648863;0,538695395;-1,425747156;1,72395411
7,133385674;2,001552582;1,817199111;-0,761356115;2,808574101
7,146070622;4,308365822;2,468421936;-0,875080705;5,041913243
7,154151351;-3,065775394;0,942118347;-0,725443125;3,288287316
7,163653278;-12,19007778;8,714894295;6,973112583;16,52790604
7,173408903;-2,650381327;28,76992416;17,24184418;33,64541942
7,183563122;4,625597477;39,2218132;-6,554127216;40,03377782
7,193651664;12,40435886;39,2218132;1,291671872;41,1568605
7,203572758;11,09233665;39,2218132;7,705738068;41,48215234
7,214522653;1,804031014;26,47747612;4,698620796;26,95159192
7,223471664;2,221819162;31,51846886;0,549469292;31,60146003
7,233510258;-1,44968915;35,11934662;-1,242590666;35,17121177
7,243549789;-1,966836691;33,28419113;0,755370617;33,35080825
7,253431716;-0,323217243;26,94554329;2,785653591;27,09108042
7,263420206;1,268926859;21,77287102;3,268085241;22,0533097
7,274295362;1,107318282;17,7254715;3,017891169;18,01460964
7,283548331;0,723048925;14,38675785;4,387374401;15,05824211
7,293573643;0,322020143;10,64222622;5,829881191;12,1387063
7,30350557;-0,392649084;7,044938564;5,021838188;8,660496029
7,313413435;0,894234359;5,527014732;3,466804028;6,58530767
7,323814945;1,497573137;3,839102507;2,45166254;4,795006003
7,333414216;1,844732404;1,206677675;2,088941097;3,036903614
7,343427289;1,934514999;-2,773682594;1,702277422;3,785949265
7,353536508;1,574187636;-7,274781704;0,712275028;7,477155293
7,363560778;0,363918662;-9,781511307;-1,171961784;9,858189218
7,37343458;-0,951695204;-12,31936455;-4,01747036;12,9927878
7,383634737;-1,229422569;-12,81376743;-3,79241538;13,41963226
7,39340083;-1,97042799;-11,15219116;-2,027888775;11,50505485
7,403422237;-2,681505919;-7,151480675;-0,970848799;7,699136135
7,413411351;-2,130839586;-4,611232281;-0,980425596;5,173507015
7,423452393;-1,355118155;-3,348291159;-0,452504128;3,640351478
7,433583643;-0,835576415;-2,372653961;0,209492654;2,524195305
7,443577237;-0,658405483;-1,642422318;0,638054729;1,881000449
7,454160778;-0,283712894;-0,366312861;0,92775315;1,037016888
7,463652966;-0,088585466;0,031124622;0,276530296;0,292036181
7,473404737;0,48123455;1,199495077;-0,124498487;1,298412494
7,483599997;0,395043284;1,780089021;-0,234631762;1,838430902
7,498244476;0,348356336;3,034650564;0,312443316;3,070517385
7,513421403;1,236605167;5,063736439;2,020706177;5,590516301
7,523476455;1,467645645;5,23611927;2,118868589;5,836140236
7,533585258;1,182735682;4,736927986;1,752555609;5,18736943
7,543438435;0,196324542;3,797203779;1,690306425;4,161061845
7,553401403;-0,305260718;2,688688517;1,222239971;2,969191909
7,563921768;-0,760159016;1,772906303;1,434126854;2,403696803
7,573504893;-0,909796655;1,680729628;1,186326981;2,249434093
7,583512601;-1,473631144;2,126051188;1,578976035;3,030651369
7,593558539;-1,498770237;3,263296843;0,762553215;3,671090562
7,603562601;-1,610100627;5,170278549;-1,280897856;5,564611722
7,613444164;-0,66798228;8,61314106;-1,9321208;8,852428482
7,623395101;-2,482787132;15,01284218;3,163937569;15,54220587
7,633442601;-1,345541358;33,73789215;11,17972469;35,56743022
7,643381091;7,8757267;39,2218132;4,070142746;40,21123927
7,653439997;1,942894697;39,2218132;8,282740593;40,13389169
7,663546612;-0,754173517;37,22145844;-3,089717388;37,35708901
7,674307341;-2,15597868;31,32094574;4,327519417;31,69191238
7,683417497;-4,45680666;34,16884995;3,01190567;34,5896662
7,693724997;-4,687847137;33,05794144;2,918531895;33,51598471
7,703440205;-2,765302896;28,59035873;3,435679436;28,92852236
7,713522393;0,359130263;22,13319778;3,790021181;22,45822075
7,723518643;0,578199685;15,93700409;4,133589268;16,47449466
7,73358656;0,827196658;12,38999367;3,955221176;13,03226657
7,744148851;1,400607944;10,09634876;3,19865346;10,68313366
7,754594476;2,145204782;8,226476669;2,321178436;8,812757303
7,763420935;3,210624456;6,489483833;2,038662672;7,52181197
7,773405674;3,90374589;4,41610527;1,306037068;6,037130987
7,783573643;3,614047527;1,054645896;0,566228688;3,807129158
7,79353307;3,047818661;-2,317587137;0,198718742;3,834044583
7,80357182;1,975216389;-5,136759758;-0,313640416;5,512363459
7,816481872;1,48799634;-7,108384609;-0,757764816;7,301881427
7,833449737;-1,253364563;-10,48181534;-2,565387011;10,863728
7,843574841;-1,942894697;-7,682993412;-2,079364061;8,193105789
7,853539476;-2,172738075;-4,253299236;-1,011550188;4,882067075
7,864697341;-1,744175911;-1,799242616;0,075417355;2,50701244
7,873549945;-1,185129881;-0,735019922;0,738611221;1,578079104
7,883600414;-0,502782345;-0,429759204;0,634463429;0,916529816
7,89533932;0,057460841;-0,019153614;0,223857865;0,231907207
7,903587028;0,035913024;-0,304063618;0,14724341;0,339742625
7,913581924;0,089782566;-0,787692368;0,152031809;0,807238408
7,923547757;0,177170932;-1,283292055;0,079008654;1,29787149
7,93358833;0,29688102;-1,649604917;-0,034715924;1,676466497
7,949096924;0,500388145;-1,829170108;-0,089782566;1,898502697
7,965964112;0,550666392;-1,491587639;0,112527482;1,593966623
7,983559684;0,278924495;0,587776542;0,405817181;0,766790533
7,993933955;-0,075417355;1,169567585;0,526724398;1,28491817
8,003540726;-0,081402861;1,557428241;0,017956512;1,559657522
8,01507057;-0,207098454;2,030282974;0,062249243;2,041767297
8,023391351;-0,543483794;2,67671752;0,604535937;2,797437223
8,03338458;-0,733822823;3,574543238;0,909796655;3,760795826
8,04363307;-0,544680893;5,251681328;0,916979253;5,35888841
8,053542445;0,092176765;8,70771122;2,554613113;9,075173795
8,063606039;0,490811348;14,18684196;5,817910194;15,34129915
8,07411682;0,800860465;23,48352814;12,50970364;26,61973246
8,083586143;4,899733543;39,02069855;6,045359135;39,78905215
8,09345057;3,752911091;39,2218132;4,27724123;39,63243325
8,103571455;1,831564307;36,45650864;4,704606533;36,80441512
8,113402393;-3,307589531;33,46375656;4,475960255;33,92340449
8,123542601;0,399831682;35,5790329;-5,935225964;36,07290333
8,133380049;0,18435353;33,9581604;-5,171475887;34,35017914
8,143459684;-0,222660765;33,1034317;0,561440289;33,10894114
8,15343932;0,240617275;31,17968941;3,286041737;31,35329326
8,163402601;1,922544003;28,64781952;2,814383984;28,84986128
8,173568382;3,241749048;25,22530937;3,220201254;25,63581218
8,183549007;3,258508444;21,29283333;3,086126089;21,76067101
8,193647132;2,273294449;16,97608757;3,244143248;17,43215082
8,203594424;1,739387512;13,5368166;4,210203648;14,28274089
8,213414893;1,322796464;10,34654236;4,709394932;11,44461139
8,224558851;0,924161851;7,478289127;4,826710701;8,948520525
8,233604528;0,663193882;4,766855717;4,477157116;6,573254551
8,243610934;0,565031588;2,134430885;3,664325714;4,278123285
8,253579216;0,688332975;0,025139118;2,833537817;2,916053981
8,263418799;1,058237195;-1,74776721;2,061407566;2,902405439
8,274458851;1,735796213;-3,378218651;1,96923089;4,278226273
8,283552653;2,084152699;-4,823119164;2,349909067;5,755713992
8,293914841;1,784877419;-6,204573631;1,702277422;6,676845795
8,303626976;1,352723956;-7,347805023;0,077811554;7,471690264
8,313408643;0,562637389;-6,831854343;-1,310825467;6,979187489
8,323612236;-0,368707061;-4,94043541;-1,364694953;5,138700152
8,333588747;-0,628477931;-4,135983467;-1,074996591;4,319370489
8,343600257;-0,517147541;-3,491943121;-0,113724582;3,531860929
8,353472861;-0,444124401;-2,846705914;-0,029927522;2,881297745
8,363580674;-0,55665189;-2,443282843;-0,320823014;2,526345143
8,373508538;-0,198718742;-1,363497853;-0,494402647;1,463915814
8,383656195;-0,070628949;-0,158017308;-0,450109929;0,482241502
8,394402393;-0,029927522;0,723048925;-0,260968;0,769285189
8,404398799;-0,025139118;1,082179189;-0,256179571;1,112372125
8,413748903;-0,237025961;1,283292055;-0,258573771;1,330368445
8,423511195;-0,112527482;1,917755604;-0,122104287;1,924930764
8,433521924;-0,197521642;2,509123325;-0,032321721;2,517093434
8,446362236;-0,180762231;2,382230759;-0,244208574;2,401527889
8,45580557;0,165199921;1,793257117;-0,450109929;1,856249189
8,473570622;0,239420176;0,286107093;0,622492433;0,725724547
8,483595205;0,677559078;0,08379706;0,396240383;0,789376141
8,494332497;1,051054597;0,22146365;1,231816769;1,634360568
8,503707184;1,59693253;0,909796655;2,027888775;2,736833269
8,514002028;1,442506552;1,918952703;1,213860273;2,690104346
8,523564372;1,125274777;3,661931515;-0,501585245;3,863621811
8,53359734;0,281318694;6,636727333;-1,387439847;6,786035605
8,543393538;-1,370680451;9,995792389;0,910993755;10,13037709
8,553413799;-2,385822058;16,43021011;5,467159748;17,47952479
8,563418695;-2,48996973;28,08997154;12,14698219;30,70497723
8,575323851;2,912546396;39,2218132;7,104793549;39,96638148
8,584711715;3,643975019;37,90380478;0,883460402;38,08881034
8,593788278;1,244984865;31,58909798;2,677914619;31,72683919
8,603588018;-1,70826292;34,35320282;3,672705412;34,5911762
8,614296768;-3,258508444;36,67677689;2,173935175;36,8853607
8,623579372;-2,917334795;35,12652969;3,04901576;35,37909591
8,636462236;-1,988384485;31,14736748;3,957615376;31,46068806
8,653525934;-0,435744703;22,4683857;4,04979229;22,83460196
8,66350182;-0,823605359;19,14044571;3,472789526;19,47036864
8,673501247;-0,712275028;16,77976227;3,624821424;17,18159154
8,683548486;0,284909993;13,8313036;3,701435804;14,32085053
8,693384111;0,29568392;9,800664902;3,614047527;10,44996656
8,703374528;-0,361524463;6,262034416;3,359065056;7,115271816
8,713403382;-0,63326633;3,217807055;3,114856482;4,523012203
8,723573695;-0,314837515;0,33279404;2,510320425;2,551780392
8,733598695;0,079008654;-3,438073635;1,161187768;3,629731356
8,743384007;1,355118155;-5,248090267;-0,620098233;5,455576824
8,753389997;1,883039594;-6,570886612;-1,00436759;6,908772918
8,763549007;1,446097851;-6,36259079;-0,652419984;6,557393719
8,774169424;1,136048675;-4,644751072;0,110133275;4,782933038
8,783638382;1,067813993;-2,370259762;0,531512797;2,653462627
8,793394684;1,007958889;-0,661996782;0,752976418;1,421687148
8,803619476;0,620098233;-0,402225882;0,569819987;0,933275038
8,81340208;0,41060558;-0,609324336;0,18435353;0,757535024
8,823556507;0,14963761;-0,641646028;-0,173579618;0,681344937
8,834977653;-0,114921682;-0,543483794;-0,791283667;0,966804773
8,843404997;-0,14963761;-0,349553436;-1,593341231;1,638082812
8,853614632;-0,222660765;-0,073023155;-1,405396342;1,424797907
8,863639736;-0,302866518;0,037110128;-1,091755986;1,13359447
8,873505309;-0,339976639;-0,116118781;-0,842759013;0,916138876
8,883597809;-0,521935999;-0,40821138;-0,773327172;1,018375487
8,893387601;-0,605733037;-0,684741676;-0,895431459;1,279680106
8,903614319;-0,794874966;-0,735019922;-1,065419793;1,518946949
8,913463069;-0,897825658;-0,322020143;-1,440112352;1,727342315
8,923394528;-0,367509961;0,582988143;-1,644816518;1,783356421
8,933399476;-0,351947635;0,465672225;-0,859518409;1,038984915
8,943375101;-0,254982471;0,357933164;0,20470424;0,484805153
8,953505101;0,587776542;1,133654475;-0,347159237;1,323319035
8,963624476;1,871068597;2,997540474;0,673967779;3,59727385
8,973511247;3,373430252;5,510255337;3,207033157;7,21304424
8,983643747;3,286041737;7,806294441;3,609259129;9,206685324
8,993399215;2,227804661;12,07036781;4,987122059;13,24870859
9,003405517;1,028309584;18,49281311;6,151901245;19,51633793
9,013703851;1,233013868;32,77063751;10,57040024;34,45530971
9,023512392;-0,48123455;38,72381973;10,28429317;40,06909641
9,036326038;2,685097218;39,2218132;8,092401505;40,1378542
9,053418694;1,567005038;38,32638168;9,245209694;39,45682374
9,063412601;0,501585245;29,20327568;7,322665691;30,11153153
9,073507601;0,600944638;22,58450508;5,063736439;23,15302207
9,083456924;1,058237195;22,57133675;4,305971622;23,00274984
9,093383486;1,994369984;22,58570099;3,819948912;22,99311659
9,103405361;3,025073767;19,40620232;2,485181332;19,79716863
9,113410882;2,728192806;14,25268269;0,78050977;14,53241877
9,12336984;1,735796213;9,399636269;0,490811348;9,571156997
9,133647757;1,440112352;6,144718647;0,180762231;6,313807553
9,14444833;0,10055647;3,394978046;0,004788403;3,396470295
9,15375833;-0,957680702;1,529894829;0,22146365;1,818454471
9,163682705;-0,739808321;-0,361524463;0,062249243;0,825767072
9,173536924;-2,509123325;-0,934935749;0,122104287;2,680431714
9,183390153;-1,647210717;-1,532289028;0,1316811;2,253564449
9,193500517;-1,021126986;-2,633621931;0,143652096;2,828303506
9,203680257;-0,924161851;-3,991134167;0,20590134;4,101904731
9,213760413;-0,831985116;-4,643554211;-0,235828862;4,723389693
9,223585309;-0,395043284;-4,133589268;-0,671573579;4,206379738
9,23343333;-0,056263741;-3,503914118;-0,767341673;3,587393622
9,24341958;0,611718535;-1,578976035;-0,867898107;1,902790585
9,25355958;0,899022758;-0,746990919;-0,646434486;1,335707639
9,263701611;0,738611221;-0,531512797;-0,33279404;0,968919121
9,273592653;0,214281052;-0,746990919;-0,063446343;0,779703303
9,283406559;-0,246602774;-1,052251697;-0,265756398;1,112956883
9,293573851;-0,518344641;-1,306037068;-0,577002585;1,518995054
9,303505934;-0,468066424;-1,461660147;-0,720654726;1,695547049
9,313480726;-0,420182407;-1,808819413;-0,738611221;1,998481289
9,323392549;-0,442927301;-1,663970232;-0,549469292;1,807456232
9,333434892;-0,29688102;-1,322796464;-0,432153404;1,4229144
9,343430986;0,14963761;-0,825999558;-0,286107093;0,886861857
9,353570986;0,903811157;-0,01316811;0,135272399;0,913972991
9,363435101;0,968454599;0,846350312;1,127668977;1,710511761
9,374142913;1,235408068;1,48560214;0,907402456;2,134625501
9,383566351;1,472434044;1,978807688;2,987963676;3,87448949
9,39351333;2,127248287;3,093308687;4,910507679;6,181167331
9,403408694;1,535880446;4,188655853;4,554968834;6,375853486
9,41362984;0,723048925;7,712920666;4,650736809;9,035557416
9,423555465;-0,368707061;13,45541382;5,114014626;14,3992101
9,433599996;-0,709880829;18,66399956;4,38378334;19,18505582
9,443516611;-1,051054597;25,90286827;4,584896088;26,32649944
9,453516298;-1,958456993;30,85766792;8,4012537;32,04079099
9,463657705;-0,982819796;39,2218132;7,472303391;39,93935257
9,476331819;-0,18555063;39,2218132;1,217451572;39,24114229
9,493570934;2,206256866;34,93499374;0,877474904;35,01558681
9,504781507;2,67432332;34,11617661;2,255337954;34,29507342
9,513798434;2,49236393;32,96696091;4,311957359;33,34104626
9,523392028;2,419340849;30,13461876;5,564124584;30,73935491
9,533373955;1,731007814;26,13869667;5,638344765;26,79587251
9,5435626;0,762553215;22,18347549;5,64552784;22,90327612
9,553588017;-0,226252064;17,8631382;5,181052685;18,60070437
9,56345734;-1,223437071;13,43626022;4,583699226;14,24921702
9,573460309;-2,330755472;9,198522568;4,010287762;10,30182733
9,583496871;-3,349488258;6,007051945;3,072957993;7,53304822
9,593425569;-2,53067112;2,686294317;2,219424963;4,306543932
9,60342583;-1,544260144;-1,001973391;1,109712481;2,149453852
9,613503225;0,070628949;-3,906140089;-0,026336219;3,906867344
9,623408017;1,325190663;-5,53659153;-0,638054729;5,728620244
9,633420361;1,663970232;-5,686229229;-0,751779318;5,972199923
9,643381559;1,70946002;-3,933673382;-0,326808542;4,301493189
9,653399788;1,55982244;-1,734599113;0,137666598;2,336842361
9,664004059;1,157596469;0,025139118;0,420182407;1,231752741
9,673535153;0,918176353;0,770932972;0,560243189;1,32335101
9,683617236;0,474051923;-0,875080705;0,045489833;0,996273451
9,693592496;0,412999779;-1,358709455;-0,318428814;1,455354633
9,703594996;0,086191259;-1,570596337;-0,418985307;1,627805417
9,71342333;-0,138863698;-1,665167332;-0,37229836;1,711920395
9,723386559;-0,323217243;-1,643619418;-0,240617275;1,692291598
9,733379892;-0,312443316;-1,543063045;-0,233434662;1,591589183
9,743413278;-0,234631762;-1,460463047;-0,231040463;1,497125269
9,753404111;-0,14963761;-1,465251446;-0,195127442;1,485741543
9,76340484;-0,049081136;-1,489193439;-0,262165099;1,512890147
9,773410465;-0,119710088;-1,430535555;-0,438138902;1,500909117
9,783567548;-0,154426008;-1,174355984;-0,474051923;1,275807428
9,793438017;-0,10175357;-0,444124401;-0,215478152;0,504014986
9,803396246;-0,161608621;0,178368032;-0,019153614;0,241452609
9,814340882;-0,208295554;0,401028782;-0,090979666;0,460964664
9,82351708;0,021547815;0,470460624;-0,144849196;0,492725883
9,833628277;0,351947635;0,617704034;0,563834488;0,907377949
9,843390257;0,955286503;1,345541358;0,672770679;1,782042153
9,853436819;1,361103654;2,658761024;0,638054729;3,054296511
9,863398694;1,291671872;4,365826607;1,66995573;4,849495884
9,873413225;0,508767843;5,908889771;3,475183725;6,873916276
9,885176715;-0,657208383;15,40429401;4,146757126;15,9662078
9,893550361;-0,657208383;15,40429401;4,146757126;15,9662078
9,903581194;-0,471657723;22,87061119;7,511807919;24,07726262
9,9133901;2,214636564;38,88542557;5,390544891;39,31970131
9,92346083;3,703830004;39,2218132;5,64313364;39,79841636
9,933467652;2,196680069;39,2218132;4,265270233;39,51415651
9,944411975;-1,974019289;36,54509354;6,442796707;37,16113888
9,953385934;-2,497152328;32,85682678;4,742913723;33,291171
9,963636142;-0,008379706;31,34369087;3,849876404;31,5792428
9,973375621;1,44849205;31,98653412;4,138377666;32,28564176
9,983564215;1,398213744;31,21081352;4,417302132;31,55285154
9,993609996;1,381454349;26,93955803;4,551377296;27,35622851
10,00360192;1,203086376;21,56337738;4,516661644;22,06415404
10,01342135;1,021126986;16,27338982;4,264073372;16,85373069
10,02362218;0,579396784;11,56279755;3,56496644;12,11375142
10,03354276;0,29688102;7,769184589;2,525882721;8,174867035
10,0457776;0,37349546;5,896918774;1,89860189;6,206274165
10,06342041;0,253785372;1,941697598;1,684320927;2,582931195
10,07363166;0,460883826;0,08499416;0,962469101;1,070506739
10,08338989;0,442927301;-1,899798989;0,33518824;1,97933624
10,09343218;0,422576606;-2,980781078;0,116118781;3,012824322
10,10354604;0,238223076;-3,883395195;0,573411286;3,932722845
10,11349354;-0,093373865;-4,195838451;0,652419984;4,247285112
10,12362937;-0,460883826;-3,722983599;0,444124401;3,777600728
10,13493468;-0,604535937;-3,138798475;0,209492654;3,203343057
10,14361312;-0,505176544;-2,645592928;0,144849196;2,697285037
10,15339166;-0,381875157;-1,915361404;0,075417355;1,954514191
10,16353036;-0,514753342;-1,158793569;0,015562311;1,268075598
10,17351088;-0,681150377;-0,414196908;0,019153614;0,797428226
10,18418583;-0,884657502;0,107739076;0,04309563;0,892235304
10,19350161;-0,948103845;0,41060558;0,211886853;1,054700849
10,20366369;-0,741005421;0,761356115;-0,035913024;1,063034295
10,21340208;-0,476446152;1,024718285;-0,906205356;1,448536035
10,22373005;-0,531512797;0,938527048;-0,506373644;1,191533944
10,23341156;-0,573411286;0,384269387;0,18674773;0,715079142
10,24383198;-0,553060591;-0,239420176;-0,161608621;0,623951428
10,25366682;-0,381875157;-0,871489406;-0,629675031;1,140970229
10,26409109;-0,198718742;-1,230619669;-0,111330383;1,251522418
10,27350765;-0,02873042;-1,401805043;-0,019153614;1,402230251
10,28640989;0,226252064;-1,492784739;-0,424970806;1,568501341
10,29984692;0,323217243;-0,088585466;2,159569979;2,1854197
10,31398349;0,323217243;-0,088585466;2,159569979;2,1854197
10,32352047;0,386663586;1,350329757;2,422932148;2,800624819
10,33352088;0,562637389;2,616862535;2,863465309;3,919689265
10,34357177;0,527921498;6,375759125;3,758896589;7,420128644
10,35364401;-0,397437483;16,60498619;6,405686855;17,80214445
10,36342172;-1,37786305;20,95764542;11,14860058;23,77840833
10,37352895;2,309207439;36,89105606;15,06072617;39,91375614
10,38343849;-3,68108511;39,2218132;5,378573895;39,75965387
10,39360807;-3,739742994;39,2218132;5,09725523;39,72805456
10,4065275;-5,139153957;36,42778015;6,979097843;37,44465084
10,4163163;-4,941632271;32,25827789;5,743690014;33,13617656
10,43342442;0,755370617;38,3970108;5,752069473;38,8328125
10,44342994;1,157596469;34,17962265;6,210559368;34,75856271
10,45430698;1,493981838;27,17418861;6,046556473;27,87883344
10,46354734;0,574608386;20,91335106;5,874173641;21,7302633
10,47350823;0,70628953;16,56787491;5,546168327;17,48580301
10,48354406;-0,142454997;12,09191608;5,002684593;13,08669481
10,49373338;-1,290474772;8,995016098;3,840299606;9,865269424
10,50358593;-0,331596941;6,520608425;3,186682463;7,265207215
10,51340359;0,932541549;3,354276657;3,186682463;4,719719351
10,52357494;0,995987892;0,112527482;2,105700493;2,332086808
10,53346515;1,479616642;-3,107673883;1,192312479;3,642596796
10,54338802;1,430535555;-7,104793549;0,292092621;7,253264192
10,55670114;0,464475125;-9,242815971;-1,497573137;9,37486584
10,57422286;-0,231040463;-2,48996973;-0,37229836;2,528227645
10,58593281;-0,453701228;-0,152031809;0,551863492;0,730418913
10,60346151;-0,415394008;-0,738611221;0,378283858;0,928007217
10,61342489;-0,1316811;-1,695094824;-0,10175357;1,703244012
10,62351994;0,037110128;-1,989581585;-0,276530296;2,009049788
10,63391729;0,226252064;-1,793257117;-0,427365005;1,857310403
10,64340942;0,216675252;-1,813607812;-0,696712673;1,9548734
10,65341989;0,1316811;-1,956062794;-0,792480767;2,114603351
10,66420677;0,264559299;-1,825578809;-0,701501071;1,973533218
10,67341156;0,187944829;-1,794454217;-0,657208383;1,920237499
10,68355734;0,178368032;-1,547851443;-0,501585245;1,636840555
10,69369958;0,197521642;-1,223437071;-0,515950441;1,342392611
10,70359052;0,20470424;-0,687135875;-0,651222885;0,968581841
10,71348489;0,539892495;0,384269387;-1,069011092;1,257748617
10,72422718;0,618901134;1,22822547;-1,344344258;1,923236309
10,7334076;0,677559078;1,236605167;-1,102529883;1,789930386
10,74359994;0,761356115;1,054645896;-0,600944638;1,432855735
10,7533938;0,972045898;1,22702837;-0,20470424;1,578725966
10,76354708;1,092953086;1,964442492;0,660799682;2,34312547
10,77356375;1,122880578;3,017891169;1,953668594;3,766344232
10,78339312;0,37110126;4,497508049;3,130418777;5,492250588
10,79356093;-0,733822823;7,795520782;3,739742994;8,67722985
10,80343838;-2,134430885;13,42907715;6,196194172;14,94284881
10,81419349;-2,036268473;39,03147507;6,959944248;39,69941132
10,82358875;0,924161851;39,2218132;6,505045891;39,76833323
10,83352286;0,575805485;39,2218132;6,199785233;39,71296413
10,84356005;2,724601507;39,07815933;4,30956316;39,40936849
10,85562541;2,631227732;35,12413788;1,685518026;35,26286137
10,86363599;0,04189853;31,89196396;4,128800869;32,15814232
10,87341156;-1,686715126;29,87125778;2,934094191;30,06236781
10,88404838;0,78170687;29,04645538;3,324349165;29,24652002
10,89357234;3,725377798;29,54564667;4,757278919;30,15717791
10,90340609;3,454833031;26,83780479;4,261679173;27,392801
10,91348526;2,118868589;21,19108009;3,629609823;21,60383177
10,9235775;1,472434044;16,62892723;3,591302633;17,07591103
10,93631541;0,542286694;12,73116779;3,737348795;13,27947605
10,95339672;-0,63326633;6,302735806;3,055001259;7,032676416
10,96565588;-0,263362199;3,881000996;2,031480074;4,388443878
10,98339797;-0,079008654;-0,675164878;1,22822547;1,403790506
10,99336609;-0,253785372;-2,82396102;0,978031397;2,999284626
11,00636953;0,337582439;-7,030573368;0,677559078;7,071209945
11,02353724;0,554257691;-7,987056732;0,069431849;8,006565906
11,03362552;-1,066616893;-5,024232388;-0,366312861;5,149249246
11,04339474;-1,569399238;-3,34230566;-0,304063618;3,70492588
11,05354531;-1,175553083;-2,942473888;-0,16759412;3,173037256
11,0638002;-0,618901134;-2,404975653;0,069431849;2,484304185
11,07359083;-0,231040463;-1,82079041;0,079008654;1,83709003
11,08361125;0,033518825;-1,361103654;-0,020350715;1,361668396
11,09362557;0,489614248;-0,511162043;0,05865794;0,710246084
11,10343177;1,033097982;0,069431849;-0,039504327;1,036181844
11,11439703;1,07739079;0,258573771;0,18555063;1,123414592
11,12359526;0,585382342;0,526724398;0,621295333;1,003054819
11,13361703;0,70509243;0,51954174;0,459686726;0,989136412
11,14424901;0,578199685;0,565031588;0,162805721;0,824670403
11,15341213;0,489614248;0,885854602;0,046686932;1,013232529
11,16349901;0,262165099;1,045069098;0,029927522;1,077866233
11,17463114;0,086191259;0,988805294;-0,01436521;0,992658653
11,1834075;-0,405817181;0,889445961;0,435744703;1,070362157
11,19344869;-0,711077929;0,889445961;0,108936176;1,143946252
11,2035752;-0,380678058;1,216254473;0,992396593;1,615252836
11,21352895;0,602141738;1,934514999;1,814804912;2,72000732
11,22341796;0,385466486;2,952050686;1,679532528;3,418189166
11,23340005;0,411802679;5,106832027;1,007958889;5,221618133
11,24393671;-3,045424461;11,2982378;2,469619036;11,95925607
11,25654119;-2,069787264;17,25022316;5,420472622;18,19988302
11,27351645;0,666785181;38,51671982;8,870517731;39,53060071
11,28337567;-0,926556051;39,2218132;5,428852558;39,60658502
11,29342843;0,648828685;39,2218132;2,123656988;39,28462204
11,3036038;-0,41060558;38,74297333;5,092466831;39,07838018
11,31360218;-0,794874966;37,59614944;4,60764122;37,8857841
11,32354265;1,404199243;35,21751022;4,23294878;35,4987698
11,33339005;2,576161146;31,85605049;5,046977043;32,35608963
11,34354156;2,213439465;29,13863182;5,923254967;29,81684303
11,35357244;1,686715126;25,92800713;5,597643375;26,57894228
11,36338729;1,234210968;22,14875984;5,334281445;22,81546401
11,37631552;0,666785181;18,50837708;5,018246651;19,18821054
11,39353448;-0,454898328;10,85770512;2,914940596;11,25138087
11,40353484;-0,538695395;7,344213486;2,178723574;7,679485716
11,41362989;-0,93014735;4,176684856;1,310825467;4,475280314
11,42354687;-0,791283667;0,565031588;0,606930137;1,146191401
11,43364369;-0,047884032;-5,084087372;-0,66917938;5,128161301
11,44352619;-0,047884032;-5,084087372;-0,66917938;5,128161301
11,45372375;0,177170932;-5,537788391;-0,882263303;5,610425861
11,46340114;-0,005985504;-4,906916618;-0,615309834;4,945348594
11,4739175;-0,10295067;-0,290895492;0,274136096;0,412758558
11,48339895;0,113724582;1,095347285;0,538695395;1,225932985
11,49353177;0,401028782;0,908599555;0,511162043;1,116988751
11,50369119;0,591367841;0,503979445;0,361524463;0,856977911
11,51349177;0,545877993;0,503979445;0,162805721;0,760581203
11,52361474;0,403422982;-0,474051923;-0,051475335;0,624599902
11,53347979;0,202310041;-0,938527048;-0,210689753;0,98293059
11,54362401;0,029927522;-1,276109457;-0,329202741;1,318228147
11,5537551;-0,126892686;-1,406593442;-0,396240383;1,46683786
11,56343458;-0,275333196;-1,436521053;-0,466869324;1,535372291
11,57344416;-0,381875157;-1,368286252;-0,829590917;1,645070513
11,58354791;-0,435744703;-1,126471877;-0,846350312;1,474829206
11,59513307;-0,55784899;-0,875080705;-0,59495914;1,196218255
11,6035588;-0,560243189;-0,778115571;-0,547075093;1,103914593
11,61341671;-0,553060591;-0,614112735;-0,466869324;0,949198312
11,62358698;-0,565031588;-0,130484;-0,248996973;0,631099249
11,63339786;-0,459686726;0,142454997;-0,038307227;0,482776093
11,64348765;-0,312443316;0,144849196;0,365115762;0,501907994
11,65387198;-0,047884032;0,362721562;0,762553215;0,845782016
11,6635139;0,165199921;0,760159016;1,045069098;1,302805497
11,67344979;0,361524463;1,78128612;0,852335811;2,007524972
11,68338484;0,354341865;3,213018656;0,81881696;3,334592667
11,69355437;0,472854823;4,994304657;3,331531763;6,022107154
11,70358005;-0,06584055;15,3288765;6,187814236;16,5308147
11,71352151;-0,55665189;23,54458046;8,680178642;25,09985322
11,72345151;-0,563834488;34,57227325;9,945513725;35,97878862
11,73342442;0,628477931;39,21463013;4,519055843;39,4791599
11,74379901;3,286041737;38,70346832;3,60327363;39,00948745
11,75356875;2,485181332;39,2218132;4,167108059;39,52077361
11,76352609;1,56101954;37,30405807;5,913678169;37,80213116
11,77625317;4,250905037;33,01963425;2,141613483;33,36094944
11,79354859;-2,604891539;33,23032379;4,996698856;33,70470114
11,80346229;-3,406949043;30,77387238;3,833117008;31,1982581
11,81340854;-0,451307029;26,76478004;5,871779442;27,40501638
11,82345135;1,589749932;22,88617325;3,944447279;23,27794869
11,83337937;0,416591108;18,23064804;2,93768549;18,470519
11,84343932;-0,933738649;13,85285091;2,972401381;14,19889137
11,86087395;-0,800860465;7,991845131;3,362656355;8,707377552
11,87358213;-0,063446343;5,6491189;3,248931646;6,517064265
11,88341046;0,837970614;3,886986494;2,589329243;4,745048438
11,89341406;0,876277804;1,586158633;2,580949545;3,153579324
11,90385692;1,22702837;-0,22146365;2,744952202;3,014864401
11,91338895;1,017535686;-2,354697466;2,780865192;3,783277712
11,92357099;1,340752959;-3,574543238;2,716221809;4,685385659
11,93349276;0,858321309;-4,553771496;2,346317768;5,194107948
11,94350671;0,215478152;-3,696647406;1,823184609;4,127424741
11,95376687;-0,210689753;-2,45405674;1,539471745;2,904609769
11,96349885;-0,40940848;-1,745373011;0,992396593;2,049095715
11,9734314;-0,311246216;-1,838746905;0,823605359;2,038673631
11,98656166;-0,104147777;-1,493981838;0,839167714;1,716691861
12,0035913;-0,434547603;-0,495599747;0,726640224;0,981048798
12,01348614;-0,602141738;-0,055066638;0,617704034;0,864387228
12,02620911;-0,804451764;0,424970806;0,517147541;1,046510585
12,03906765;-0,840364814;0,59615624;0,057460841;1,031948172
12,05529401;-0,471657723;0,553060591;-0,045489833;0,728290018
12,06338666;-0,051475335;1,108515382;0,922964752;1,443371052
12,0746901;0,603338838;0,272938997;-2,118868589;2,219936384
12,08413515;0,833182216;0,640448928;-2,671929121;2,871162249
12,09370281;0,988805294;-0,548272192;-2,23019886;2,500425016
12,10362578;1,370680451;-1,762132406;-0,250194073;2,24643553
12,11343171;1,479616642;-2,515108824;0,378283858;2,942471152
12,12403286;1,82198751;-1,380257249;0,073023155;2,286937021
12,1336377;1,365892053;-0,385466486;0,533906996;1,516345011
12,1435102;0,703895271;0,554257691;0,011971008;0,895998574
12,15370687;0,128089786;3,19745636;1,211466074;3,421663954
12,16354484;0,828393817;3,236960649;1,126471877;3,526058629
12,17342067;-1,274912357;4,334702015;2,534262419;5,180495062
12,18349645;-1,686715126;6,214150429;3,320757866;7,244867581
12,19351692;-2,876633406;10,82298851;3,580528736;11,75722272
12,20389984;-3,90135169;15,81968784;7,286752701;17,84880482
12,21351177;-3,031059265;23,39254761;11,64539719;26,30615668
12,22351343;0,233434662;35,78852844;10,95826149;37,42935686
12,23349755;3,227383852;39,2218132;8,917203903;40,35199082
12,24350661;5,246892929;39,19667435;3,372233152;39,68981131
12,25409046;-1,884236693;31,06357002;15,50724411;34,77025094
12,26382239;2,535459518;39,2218132;10,93192482;40,79566357
12,27426145;-1,139639974;37,77451706;2,846705914;37,89876849
12,28345755;-0,59615624;29,5779686;4,141968727;29,87252138
12,29340963;-1,233013868;27,09757423;3,836708307;27,39560518
12,30367583;-1,510741234;25,47550392;3,983951569;25,82935364
12,31351421;-1,546654344;23,48592186;3,879803896;23,85442398
12,32356182;-0,288501292;22,14157677;4,080916882;22,51636155
12,33338364;0,908599555;20,68590355;5,136759758;21,33350556
12,34340588;1,944091797;19,10692596;5,673060894;20,02592651
12,3534425;2,323572636;14,53878975;5,3594203;15,66840078
12,36358979;1,362300754;6,817489147;4,468777657;8,264623123
12,37357557;0,914585054;1,628057122;3,394978046;3,874649887
12,38343614;1,668758631;-6,755239964;3,110068083;7,621715411
12,39392197;0,992396593;-7,265204906;1,528697729;7,490325098
12,40393927;0,628477931;-3,162740469;-1,316810966;3,483088127
12,41349187;-0,138863698;0,216675252;-0,821211159;0,860592272
12,4234152;-0,585382342;0,089782566;1,013944387;1,174230223
12,43355609;-0,842759013;-0,468066424;1,908178806;2,137866995
12,4436275;-0,918176353;-0,9660604;1,095347285;1,725139469
12,45381703;-0,712275028;-2,227804661;0,281318694;2,355756679
12,46353494;0,143652096;-4,924872875;-0,623689532;4,966286077
12,47621692;0,18555063;-8,097189903;-1,26413846;8,197375154
12,49342958;0,04189853;-3,590105534;-0,187944829;3,595265844
12,50388927;-0,338779539;1,124077678;0,293289721;1,210099608
12,51360229;-0,029927522;-1,774103403;-0,306457818;1,800626262
12,52343718;0,469263524;-4,638765812;-1,140837073;4,799986015
12,53351088;0,075417355;-6,35421133;-1,322796464;6,490876666
12,54360927;-0,228646263;-1,588552833;-0,575805485;1,705089784
12,55405234;-0,229843363;2,245761156;0,150834709;2,262525636
12,56343526;1,144428372;5,457582951;0,578199685;5,606178987
12,57344401;1,364694953;6,707355976;0,852335811;6,897644006
12,58338093;1,810016513;4,819528103;0,187944829;5,151634126
12,59356052;2,138022184;4,509479046;0,477643251;5,013450229
12,60337937;1,385045648;4,712985992;0,073023155;4,912832258
12,61357776;0,076614454;6,716932774;0,33279404;6,725608339
12,62376338;-0,489614248;8,872911453;1,199495077;8,966998841
12,63351005;-1,515529633;9,915586472;1,07739079;10,08843179
12,64358036;-2,564189911;13,26986313;0,675164878;13,53219069
12,65348317;-2,505532026;17,73863983;3,615244627;18,27585915
12,66360489;-6,09683466;3,867832899;0,648828685;7,24931051
12,67393526;-3,934870481;10,99178028;1,237802267;11,74029786
12,6833952;-4,182670593;22,4983139;2,422932148;23,01172445
12,69354937;-5,297171116;28,7639389;2,201468468;29,33037106
12,70345322;-1,656787634;39,12724304;3,847482204;39,35084767
12,71362062;-1,853112102;39,2218132;3,026270866;39,38201329
12,72342432;-3,19745636;39,2218132;2,679111719;39,44302217
12,73364224;-3,357867956;37,62009048;1,341950059;37,79348244
12,74440921;-2,614468336;32,18884659;1,535880446;32,33135039
12,75356791;-3,025073767;28,73880005;1,284489155;28,92610606
12,76356974;-0,723048925;24,84822273;1,176750183;24,88657698
12,77369114;0,981622696;21,13242149;1,241393566;21,19159926
12,7840376;2,041056871;17,1951561;1,159990668;17,35467904
12,79354328;2,633621931;11,11149025;0,673967779;11,43920507
12,80348828;2,589329243;5,828683853;0,027533319;6,378004349
12,81342411;2,683900118;1,195903778;-0,568622887;2,992797634
12,82384291;1,842338204;-0,945709646;0,124498487;2,074626874
12,83354416;0,537498295;-2,577358246;3,367444754;4,274501622
12,8436039;1,393425345;-2,473210335;2,014720678;3,481020391
12,85351244;1,531091928;0,462080926;1,212663174;2,007065831
12,86350833;2,577358246;2,516305923;1,48560214;3,896355316
12,87338849;2,596511841;2,743755102;2,11767149;4,330657957
12,88339812;1,920149803;3,473986626;2,731784105;4,81852703
12,89342099;1,467645645;1,606509328;1,180341482;2,475492269
12,90337645;0,762553215;0,568622887;-0,01316811;0,951311091
12,91341302;0,317231715;-0,428562105;-0,539892495;0,758805208
12,92362229;0,01436521;-1,212663174;-0,688332975;1,394475033
12,93338864;0,007182605;-1,541865945;-0,610521436;1,658354186
12,94366442;0,094570965;-1,56221664;-0,55784899;1,661523395
12,95354052;-0,031124622;-1,564610839;-0,757764816;1,73873038
12,96353484;-0,29807812;-1,564610839;-1,113303781;1,943271198
12,97439671;-1,247379065;-1,826775908;-1,379060149;2,60669746
12,98340197;-1,254561663;-0,907402456;-0,852335811;1,767421997
12,99355119;-1,968033791;-0,597353339;-0,357933164;2,087607282
13,00342734;-2,220622063;-0,04189853;-0,401028782;2,25693197
13,01338979;-1,893813491;0,846350312;-0,210689753;2,085000854
13,02337656;-1,794454217;0,712275028;0,210689753;1,942110147
13,03555437;-1,568202138;-0,18555063;0,494402647;1,654726853
13,04362208;-1,568202138;-0,18555063;0,494402647;1,654726853
13,05364;0,093373865;-1,034295082;0,623689532;1,211393259
13,06354442;0,347159237;-1,159990668;0,972045898;1,552730213
13,07422411;0,681150377;-0,796072066;2,097320795;2,344451127
13,08349406;1,310825467;0,06584055;2,570175409;2,885896744
13,0958189;0,04309563;1,844732404;1,216254473;2,210015796
13,11354026;-2,23259306;5,368997097;4,736927986;7,499939223
13,12381531;-3,072957993;8,384494781;3,317166567;9,526091412
13,13350729;-5,160701752;14,79616642;2,958036184;15,94708003
13,14337963;-3,767276287;25,83343697;5,27682066;26,63463295
13,15350166;-1,453280449;38,57657623;11,54603767;40,29361294
13,16356109;-3,916913986;39,2218132;11,08275986;40,94533444
13,17434119;-4,12640667;39,2218132;3,876212597;39,62830916
13,18360005;1,464054346;35,73465729;4,5394063;36,05156579
13,19363776;-1,696291924;31,61902428;2,831143618;31,79080805
13,20338;-0,688332975;34,72669983;2,262520552;34,80713264
13,21338057;2,59890604;35,90345001;3,628412724;36,1797929
13,22341093;4,000710964;32,81253433;3,483563423;33,23858167
13,23340218;3,505111217;28,24080658;3,894169092;28,72270032
13,24584125;1,197100878;21,30480385;4,764461517;21,86384712
13,26339927;-0,233434662;17,64167595;4,959589005;18,32704955
13,27389;-0,661996782;10,7284174;4,414907932;11,62018036
13,28338489;-0,913387954;7,395689011;3,64277792;8,2945961
13,29341718;-1,017535686;4,815936565;2,71502471;5,621386221
13,30338947;-0,718260527;2,503137827;1,956062794;3,256958523
13,3134052;-0,427365005;0,330399841;1,371877551;1,474399172
13,32387078;-0,492008448;-2,202665567;0,665588081;2,35304386
13,33357958;-0,620098233;-4,078522682;0,487220049;4,154064571
13,34340906;-0,350750536;-5,224148273;0,524330199;5,262097802
13,35442927;-0,136469498;-6,210559368;0,010773907;6,212067906
13,36339109;-0,164002821;-6,27999115;0,026336219;6,282187467
13,37340453;-0,487220049;-4,83509016;0,421379507;4,877811079
13,38351947;-1,082179189;-3,033453465;0,639251828;3,283533861
13,39355187;-1,259350061;-1,703474522;0,683544576;2,225987693
13,4035276;-1,11569798;-1,097741485;0,821211159;1,767542395
13,41354791;-0,824802458;-0,89303726;0,865503907;1,49228404
13,4234027;-0,448912829;-0,797269166;0,764947414;1,19260446
13,43352958;-0,057460841;-0,731428623;0,536301196;0,90879511
13,44346921;0,25977087;-0,737414122;0,228646263;0,814579404
13,45349552;0,438138902;-0,796072066;0,104147777;0,914627351
13,46339958;0,603338838;-0,870292306;0,120907187;1,065854117
13,47442723;0,647631586;-0,876277804;-0,237025961;1,115110204
13,48389619;0,423773706;-0,758961916;-1,185129881;1,469741535
13,49348526;0,165199921;-0,405817181;-1,443703651;1,508727554
13,50338776;-0,160411507;0,367509961;-0,329202741;0,518815832
13,51366046;-0,081402861;1,203086376;-1,254561663;1,740105807
13,52394729;-0,059855044;1,848323703;-0,972045898;2,089199934
13,53339583;0,068234749;2,274491549;-0,016759412;2,275576556
13,54341718;0,302866518;2,710236311;-0,573411286;2,786738146
13,55337921;0,385466486;3,484760523;-1,334767461;3,751498965
13,56632656;1,057040095;4,947618008;-0,545877993;5,088638373
13,5763526;0,796072066;7,2891469;0,381875157;7,342426159
13,59339463;-2,833537817;16,47330475;2,925714493;16,96934033
13,60339927;-5,838260651;29,18771362;6,973112583;30,57175515
13,61346671;-5,810727596;39,2218132;13,63737297;41,92962112
13,62436078;-5,412093163;39,2218132;9,32421875;40,67655883
13,63344057;-1,096544385;37,39384079;5,20379734;37,77011048
13,64345697;0,602141738;31,87879562;5,142745018;32,29656346
13,65340593;-0,919373453;31,31256676;4,146757126;31,59933036
13,6635439;-1,589749932;32,48452759;3,811569214;32,74599055
13,67346932;-1,948880196;30,42910576;2,45166254;30,58985552
13,68350239;-1,716642618;26,3960743;2,311601639;26,55264774
13,69341281;-0,621295333;22,76407051;2,024297476;22,86234228
13,70350838;0,897825658;19,02791786;1,109712481;19,08138388
13,71352343;0,808043063;16,60977364;1,397016644;16,68799477
13,72340739;1,023521185;14,30535507;1,286883354;14,39954333
13,73352614;1,276109457;8,106766701;1,254561663;8,301930297
13,74500807;-0,815225661;5,706579685;0,9648633;5,844707501
13,7535325;0,386663586;3,818751812;0,569819987;3,880343921
13,76355156;-0,331596941;1,181538582;0,211886853;1,245345731
13,77341916;0,727837324;-1,142034173;0,256179571;1,37826601
13,7836201;0,294486821;-4,270058632;0,197521642;4,28475647
13,79352859;0,919373453;-6,271611214;0,142454997;6,340240389
13,80358093;1,592144132;-7,738059998;-0,253785372;7,9042332
13,81352885;1,307234168;-7,319074631;-0,587776542;7,458095996
13,823445;0,312443316;-4,887762547;-0,37349546;4,91195912
13,83336942;-0,195127442;-2,513911724;-0,126892686;2,524664063
13,84342708;-0,423773706;-0,943315446;0,248996973;1,063685892
13,85522348;-0,628477931;-0,107739076;0,542286694;0,837058586
13,86343671;-0,654814184;0,428562105;0,562637389;0,963850571
13,8733863;-0,700303972;0,70628953;0,533906996;1,128861034
13,8834138;-0,663193882;0,761356115;0,554257691;1,151820666
13,89340151;-0,454898328;0,511162043;0,488417149;0,840696398
13,90350906;-0,140060797;0,019153614;0,302866518;0,334233475
13,9143413;0,020350715;-0,386663586;0,237025961;0,453986989
13,92341322;0,021547815;-0,551863492;0,29807812;0,627589187
13,93340869;-0,034715924;-0,434547603;0,329202741;0,546270317
13,94362015;-0,010773907;-0,053869538;0,232237563;0,238646788
13,95351557;0,257376671;0,973242998;0,208295554;1,028023211
13,96343468;0,567425787;1,517923832;0,476446152;1,689102045
13,97337312;0,647631586;2,020706177;1,028309584;2,357986583
13,98360609;0,51954174;2,393004656;1,073799491;2,673843722
13,99342364;-0,543483794;2,776076794;1,553836942;3,227442678
14,00415906;-1,531091928;3,500322819;0,774524271;3,89825476
14,0136063;-2,035071373;4,703409195;0,187944829;5,128245003
14,02354682;-1,398213744;7,479485989;-0,450109929;7,622356019
14,03338885;-0,804451764;11,36288166;-0,809240162;11,42003029
14,04340947;-0,29688102;18,50957298;-1,295263171;18,55721253
14,0533714;-2,304419041;31,14856339;2,718616009;31,35178178
14,06498994;-2,480392933;39,2218132;13,68765068;41,61555912
14,07342781;-2,345120668;39,2218132;4,660313606;39,5672686
14,08353692;0,237025961;36,8455658;-1,499967337;36,87684642
14,09342895;-1,37666595;30,89717293;1,729810715;30,97616421
14,10358677;-4,661510944;32,22475815;1,388636947;32,58976886
14,11356359;-5,906495571;33,37756729;0,345962137;33,89791112
14,12338937;-4,5394063;31,62860107;0,66917938;31,95969988
14,13356046;-3,335123062;28,46107292;1,939303398;28,72136166
14,1436551;-2,313995838;24,25206566;2,539050817;24,49416348
14,15746114;-1,353921056;16,00882912;1,886630893;16,17637438
14,17340192;-1,458068848;12,91312695;1,533486247;13,0853503
14,18352354;-0,015562311;7,502231121;1,435323954;7,638315837
14,19356427;0,469263524;4,707000732;1,547851443;4,977138559
14,20357145;0,663193882;2,276885748;1,341950059;2,724860509
14,21394531;0,89303726;-0,234631762;0,894234359;1,285388151
14,22351552;-0,096965171;-2,687491417;-0,010773907;2,68926169
14,23345078;-0,110133275;-5,631162167;-0,623689532;5,666666155
14,24642453;0,044292733;-7,401674747;-0,718260527;7,436575092
14,26367078;0,003591303;-6,866570473;-0,664390981;6,898638875
14,27340098;-0,108936176;-4,677073002;-0,174776718;4,681605051
14,28355026;-0,017956512;-2,433706045;0,087388359;2,43534069
14,29354567;0,515950441;-1,034295082;0,317231715;1,198585473
14,30339656;0,502782345;-0,339976639;0,679953277;0,9114333
14,31368046;0,396240383;0,064643443;0,922964752;1,006503427
14,32341276;0,240617275;0,336385339;0,940921247;1,027805703
14,33342369;0,069431849;0,337582439;0,839167714;0,907185283
14,34342218;-0,108936176;0,022744916;0,766144514;0,774184628
14,35351937;-0,270544797;-0,514753342;0,683544576;0,897440069
14,36556963;-0,688332975;-1,711854219;0,216675252;1,857739303
14,38353786;-0,833182216;-2,059013367;-0,33518824;2,246348104
14,39340364;-0,963666201;-2,087743998;-1,033097982;2,520836962
14,40336682;-0,701501071;-0,835576415;-0,447715729;1,179296855
14,41365624;-0,365115762;-0,160411507;0,008379706;0,398887942
14,42348942;0,16879122;0,518344641;-0,086191259;0,551906311
14,43344999;0,533906996;1,234210968;-0,582988143;1,46567683
14,44346828;1,179144382;2,203862667;-1,127668977;2,742084873
14,45342317;1,634042621;3,502717018;-0,165199921;3,868644828
14,46358328;1,684320927;5,416881561;0,567425787;5,701009986
14,47350395;1,047463298;9,093177795;0,954089403;9,202898911
14,48356781;-0,48482585;16,42422295;3,161543369;16,73276761
14,49402036;0,038307227;32,6030426;9,755174637;34,03121048
14,50354817;-2,650381327;39,2218132;11,67891598;41,00941636
14,51364796;-1,792060018;37,63565445;2,45166254;37,75797418
14,52355005;-2,602497339;29,49895859;3,549403906;29,8254894
14,53353406;-2,643198729;30,01371193;1,460463047;30,1652508
14,54409499;-2,608482838;36,06864929;1,956062794;36,21571242
14,55357906;-0,612915635;37,24420166;3,448847532;37,40856549
14,56340838;-2,196680069;31,47657013;1,865083098;31,60820155
14,57372197;-1,8590976;28,61908913;0,952892303;28,69523497
14,58362739;0,843956113;29,15539169;1,714248419;29,21793583
14,59352104;1,436521053;28,57479668;3,259705544;28,79597677
14,60341317;0,320823014;24,60281754;2,911349297;24,77655167
14,61359906;-0,353144765;20,61407661;2,633621931;20,78462967
14,62355723;0,658405483;13,89834118;2,488772631;14,13475767
14,63365119;1,206677675;10,72003841;2,794033289;11,14369403
14,6433926;0,948103845;7,946355343;2,505532026;8,385770977
14,65350874;0,672770679;5,631162167;2,182314873;6,076603158
14,66376739;0,173579618;3,509899616;1,70826292;3,907388822
14,6735527;-0,033518825;1,619677424;1,320402265;2,089961868
14,68359416;0,20350714;-0,287304193;1,436521053;1,479037387
14,69360005;0,324414343;-1,358709455;2,214636564;2,618387129
14,7035151;0,715866327;-3,861847401;1,987187386;4,401731892
14,71358046;1,472434044;-5,428852558;1,732204914;5,885663597
14,72358182;0,988805294;-6,672640324;0,729034424;6,784788574
14,73420557;0,047884032;-7,076063156;-0,343567938;7,084560791
14,74360562;-0,828393817;-6,149507046;-0,472854823;6,223043058
14,75337869;-1,33955586;-4,570530891;-0,029927522;4,76288339
14,76350374;-1,283292055;-3,290830135;0,038307227;3,532402712
14,77417588;-0,987608194;-2,612074137;-0,075417355;2,793562066
14,78343229;-0,784101069;-2,11527729;-0,059855044;2,256722209
14,79341114;-0,714669228;-1,651999116;-0,076614454;1,801589009
14,80347078;-0,547075093;-1,142034173;-0,063446343;1,267895362
14,81356463;-0,319625914;-0,66917938;0,055066638;0,743635732
14,82351333;0,04070143;-0,118512981;0,16879122;0,210219906
14,83388635;0,381875157;0,383072257;0,14963761;0,561216896
14,84347312;0,922964752;1,021126986;0,10055647;1,380099945
14,85357874;1,194706678;2,08295536;-0,10055647;2,403359874
14,86360755;0,884657502;1,948880196;-0,004788403;2,140274712
14,87347828;0,639251828;1,435323954;-0,094570965;1,574084311
14,88637442;0,113724582;0,883460402;0,214281052;0,916161521
14,90359442;-0,878672004;0,331596941;1,001973391;1,373306847
14,91357864;-1,250970364;0,906205356;2,173935175;2,666857541
14,9234776;-1,142034173;2,105700493;2,978386879;3,822172814
14,93351177;-2,211045265;3,220201254;1,868674397;4,330168736
14,94340557;-1,088164687;6,556521416;1,833958507;6,894597832
14,95339281;-1,175553083;11,52927876;3,305195332;12,05116218
14,96342208;-1,460463047;17,29930496;4,711789131;17,9888816
14,97338645;-1,885433793;23,33508682;6,06451273;24,1838676
14,98340072;-1,660378933;33,00646591;7,941566944;33,98900022
14,99394536;0,569819987;39,2218132;8,33062458;40,10080587
15,00355151;1,997961283;39,2218132;1,588552833;39,30478317
15,01480885;2,506729126;36,92577362;-0,312443316;37,01208004
15,02354145;-2,784456491;31,19046211;0,901416957;31,3274748
15,03362062;-5,289988518;33,54037094;-0,286107093;33,95618233
15,04339739;-5,057751179;35,31208038;0,401028782;35,67470662
15,05354098;-4,903325081;32,92625809;1,774103403;33,33659418
15,06338546;-3,147178173;28,75196838;2,130839586;29,0020843
15,07363604;-2,795230389;21,28565025;1,863885999;21,54915986
15,08339593;-2,442085743;19,14044571;1,886630893;19,3876203
15,09340109;-2,165555477;16,09142876;1,866280198;16,34339964
15,10358963;-1,802833915;12,82334423;2,297236443;13,15164106
15,1153401;-2,04464817;9,47146225;2,04704237;9,903512799
15,12350546;-0,512359142;7,06768322;1,632845521;7,271921512
15,13346921;-0,438138902;3,357867956;1,695094824;3,786897064
15,14343015;0,442927301;0,379480958;2,152387381;2,230013863
15,15358374;1,219845772;-2,480392933;1,260547161;3,037984851
15,16342598;1,280897856;-4,362235546;0,691924274;4,598756079
15,17345921;1,416170359;-5,990292549;-0,025139118;6,155467105
15,18356041;0,638054729;-6,746860504;-0,730231524;6,816192381
15,19376192;0,129286885;-5,257667065;-0,645237386;5,298689399
15,20349765;0,031124622;-2,576161146;-0,345962137;2,599473945
15,21337619;0,390254885;-0,354341865;-0,345962137;0,63051315
15,22343885;0,48123455;0,829590917;0,174776718;0,974861366
15,23446744;0,543483794;1,134851575;0,025139118;1,258528786
15,24341989;0,397437483;0,902614057;-0,125695586;0,994217315
15,25352276;0,16879122;0,44651863;-0,146046311;0,499198245
15,2635302;0,034715924;-0,20470424;-0,046686932;0,212811398
15,27364604;-0,051475335;-0,852335811;0,152031809;0,86731754
15,28436244;-0,29568392;-1,800439715;0,454898328;1,880410763
15,29337937;-0,29568392;-1,800439715;0,454898328;1,880410763
15,30359578;-0,302866518;-1,831564307;0,243011475;1,872274156
15,31338442;-0,169988319;-1,556231141;0,225054964;1,581581844
15,32397588;-0,016759412;-1,017535686;0,486022949;1,127775713
15,33342833;0,179565132;-0,268150598;0,545877993;0,634138126
15,34396786;0,434547603;0,59495914;0,608127236;0,955314992
15,35348546;0,721851826;1,180341482;0,791283667;1,593865087
15,36354354;1,285686255;1,650802016;1,109712481;2,368459042
15,37351312;1,515529633;2,281674147;1,436521053;3,092969401
15,38362749;1,125274777;2,93768549;1,951274395;3,701852391
15,39353874;0,302866518;4,05577755;2,179920673;4,614446208
15,40341104;-0,005985504;5,726930618;2,849100113;6,396494476
15,41386916;0,037110128;7,429207802;0,735019922;7,465571647
15,42501812;-0,683544576;9,187748909;1,060631394;9,273990627
15,43342416;-0,814028561;12,25831223;3,131615877;12,67816545
15,4433801;-1,472434044;19,1296711;6,300341606;20,19422399
15,45362692;-3,107673883;33,92583847;9,885659218;35,47317876
15,46340479;-2,211045265;39,2218132;6,09444046;39,75401309
15,47376078;-1,035492182;38,70586014;-1,103726983;38,73543683
15,48356395;0,265756398;33,69479752;-0,01316811;33,6958481
15,49360895;-0,070628949;32,11342621;-1,735796213;32,16038121
15,5033851;-5,54257679;29,94308281;-2,586935043;30,56142337
15,51341958;-5,301959515;29,5288868;-1,985990286;30,06676051
15,52359197;-0,814028561;31,01568604;-3,089717388;31,17982964
15,53344182;3,840299606;27,64584732;2,940079689;28,06572364
15,54395999;4,918887615;23,53739738;3,052607059;24,23887252
15,55339166;2,644395828;20,50992966;3,207033157;20,92689909
15,56401989;1,466448545;16,17283249;4,663905144;16,89565013
15,57353374;2,025494576;11,96023464;4,715380192;13,01478587
15,58372505;0,038307227;8,718485832;3,730166197;9,48301653
15,5933851;-1,407790542;6,676231384;3,086126089;7,488532162
15,60358942;-1,837549806;4,562151432;2,576161146;5,552154647
15,61721057;-1,349132657;1,941697598;2,021903276;3,111019342
15,63355041;1,22702837;-2,087743998;1,173158884;2,690831728
15,64336729;2,329558372;-3,04901576;1,630451322;4,1691379
15,65339291;2,548627615;-4,106055737;0,921767652;4,919842684
15,66487864;2,090138197;-4,965574265;-0,438138902;5,405328034
15,67349156;0,946906745;-5,120000362;-1,209071875;5,345361624
15,68541723;-0,016759412;-4,417302132;-1,016338587;4,53274565
15,69366661;-0,922964752;-3,82593441;-0,802057564;4,016582425
15,70615656;-1,446097851;-3,016694069;-0,470460624;3,378309533
15,72352015;-1,240196466;-2,49236393;-0,379480958;2,809621154
15,7335989;-1,11689508;-1,977610588;-0,344765037;2,297229024
15,74360244;-1,181538582;-1,514332533;-0,306457818;1,945032862
15,75355817;-1,357512355;-0,696712673;-0,266953498;1,549035994
15,7634365;-1,186326981;-0,325611442;-0,1316811;1,237228527
15,77576265;-0,896628559;0,135272399;-0,090979666;0,911327984
15,79356677;0,029927522;1,29885447;0,01436521;1,299278627
15,80352677;0,531512797;1,495178938;0,198718742;1,59923577
15,81343588;0,957680702;1,309628367;0,287304193;1,647671838
15,82350906;1,233013868;0,873883605;0,256179571;1,53284824
15,83353015;0,89064306;0,521935999;0,694318473;1,244082148
15,84361177;0,216675252;0,44532153;0,478840351;0,68887409
15,85340218;-0,216675252;0,767341673;0,815225661;1,140330779
15,86341583;-0,239420176;1,614889026;3,410540342;3,781133959
15,87340156;-0,946906745;2,352303267;4,151545525;4,864698684
15,88357302;-1,891419291;4,356249809;2,625242233;5,426442308
15,8933902;-1,962048292;8,364143372;0,254982471;8,594972013
15,90357536;-3,314772367;14,32450867;0,114921682;14,70348501
15,91340968;-1,842338204;27,03173447;3,79480958;27,35890089
15,92338817;-2,583343744;39,14639664;14,17846203;41,71501912
15,93614458;4,660313606;37,89901733;-0,454898328;38,18718332
15,95357025;0,544680893;33,38355255;1,521515131;33,42264601
15,96373828;-5,392939091;36,2553978;-1,515529633;36,68561696
15,97534328;-7,584830761;34,17004776;2,134430885;35,06675943
15,98355505;-4,077325344;31,51487732;3,180696964;31,93632583
15,99446145;-1,59932673;27,87688828;3,015496969;28,08508444
16,00340958;-0,563834488;23,83786964;3,007117271;24,03340785
16,01389661;-1,138442874;20,23339844;2,662352324;20,43953484
16,02356786;-1,654393315;17,10297966;2,41455245;17,35162799
16,0336076;-2,242169857;13,95101357;2,407369852;14,33365043
16,04351395;-2,381033659;10,7918644;2,626439333;11,35921837
16,05362989;-1,703474522;7,641094685;2,570175409;8,239778823
16,06405729;-1,013944387;4,686649799;2,777273893;5,541301277
16,07358739;-1,161187768;1,895010591;3,132812977;3,841085695
16,08357072;-1,156399369;-0,438138902;2,928108692;3,17852886
16,09381041;-1,261744261;-3,23576355;1,802833915;3,913102919
16,10344859;-0,313640416;-5,663484097;1,230619669;5,804123292
16,1134427;0,118512981;-7,043741226;0,92895025;7,105721945
16,12355369;-0,038307227;-7,179013729;0,501585245;7,196616797
16,13358661;0,169988319;-5,841852188;0,169988319;5,846796477
16,14489291;0,414196908;-3,502717018;0,233434662;3,534837667
16,15341145;0,402225882;-1,766920805;0,294486821;1,835896859
16,16441203;0,55784899;-0,882263303;0,356736064;1,103106817
16,17340203;0,634463429;-0,612915635;0,233434662;0,912524608
16,1835739;0,493205547;-0,462080926;0,232237563;0,714636117
16,19359833;0,125695586;-0,363918662;0,609324336;0,72077203
16,2036139;-0,634463429;-0,645237386;1,046266198;1,383310553
16,21341354;-0,998382092;-1,094150186;0,93014735;1,74902988
16,22347473;-1,132457376;-1,493981838;0,782903969;2,031595448
16,23520322;-1,045069098;-1,793257117;0,614112735;2,164503398
16,24363588;-0,834379315;-1,9309237;0,464475125;2,154156986
16,2535526;-0,48123455;-1,82198751;0,384269387;1,92324937
16,26341343;-0,113724582;-1,466448545;0,440533102;1,535406796
16,27359234;0,243011475;-0,980425596;0,432153404;1,098656221
16,28367546;0,453701228;-0,67037648;-0,031124622;0,810072942
16,29358223;0,925358951;-0,245405674;-0,969651699;1,362621573
16,30339291;1,942894697;0,748188019;-1,358709455;2,486104684
16,3137901;2,946065187;2,203862667;-1,666364431;4,038945551
16,32344421;3,49553442;4,217386246;-2,011129379;5,835216278
16,33342989;3,695450306;6,841431141;-1,516726732;7,922246714
16,34357557;4,471171856;10,1095171;-0,694318473;11,07591043
16,35355828;-0,442927301;13,71159267;0,112527482;13,71920627
16,36353947;-4,180276394;22,32952309;3,350685358;22,96321851
16,37339031;-7,17422533;35,28933716;7,936778545;36,87545633
16,38343973;-1,630451322;39,2218132;7,970297337;40,05664292
16,39361999;3,798400879;38,40179825;1,017535686;38,6026079
16,40631109;0,353144765;31,80457497;0,836773515;31,8175406
16,42362156;-8,464699745;29,46903229;-5,214571476;31,10091255
16,43760525;-7,297526836;30,58951759;-2,053027868;31,51487598
16,45340218;1,480813742;28,93751907;-1,499967337;29,01418139
16,46337781;3,606864929;26,91561508;-0,555454791;27,16189132
16,47360166;2,370259762;23,74449539;0,974440098;23,88239365
16,48341677;2,384624958;18,76096535;2,061407566;19,02392331
16,49674447;1,315613866;13,93425369;2,731784105;14,26032644
16,51345958;0,701501071;6,936002254;3,156754971;7,652799029
16,52347822;0,841561913;4,633977413;2,534262419;5,348313671
16,53339458;-0,228646263;2,066195965;1,535880446;2,584641875
16,54404755;-1,097741485;0,392649084;1,021126986;1,549809663
16,55359994;-1,246181965;-1,668758631;1,086967587;2,349302746
16,56344301;-1,480813742;-3,149572372;1,659181833;3,855580348
16,57353796;-1,37427175;-4,310760021;1,277306557;4,701360106
16,58359708;-1,186326981;-4,714183331;0,688332975;4,909653599
16,59340942;-0,762553215;-4,204218388;0,193930343;4,277212718
16,60574255;-0,761356115;-3,265691042;-0,10295067;3,354847233
16,62343369;-0,739808321;-3,165134668;-0,422576606;3,277798775
16,63379859;-0,493205547;-2,972401381;-0,423773706;3,042697131
16,64395505;-0,344765037;-1,990778685;0,062249243;2,021370246
16,65440791;-0,426167905;-1,602918029;0,074220255;1,660263213
16,66337031;-0,44532153;-1,200692177;0,150834709;1,289466587
16,67343869;-0,423773706;-0,697909772;0,311246216;0,873805706
16,68371869;-0,448912829;-0,269347697;0,330399841;0,619059743
16,69348525;-0,63206923;0,098162271;0,132878199;0,653302349
16,70358963;-0,900219858;0,521935999;-0,344765037;1,096209793
16,71356796;-0,987608194;1,103726983;-0,566228688;1,585622315
16,72358551;-0,85353291;1,772906303;-0,464475125;2,021744873
16,73337546;-0,543483794;2,097320795;-0,424970806;2,207878923
16,74337546;-0,142454997;1,982398987;-0,289698392;2,008512964
16,75402098;-0,16759412;1,659181833;0,627280831;1,781699578
16,76338291;-0,237025961;1,278503656;1,00556469;1,643749753
16,77360072;-0,830788016;1,088164687;1,97042799;2,399353575
16,78342385;-0,905008256;1,456871748;2,373851061;2,928597633
16,79343661;-0,675164878;2,281674147;3,211821556;3,997209306
16,80614364;-0,405817181;4,452018261;3,500322819;5,677800104
16,82359588;0,584185243;11,53406715;0,550666392;11,56197263
16,83337812;0,912190855;18,41739655;-0,250194073;18,44166979
16,843424;0,035913024;25,53655624;4,240131378;25,88620692
16,85345301;2,051830769;38,48320007;12,11705494;40,39789249
16,86339671;-2,646790028;39,2218132;5,856217384;39,74482872
16,87340281;0,910993755;38,21864319;-2,433706045;38,30688609
16,88357874;-3,080140591;34,39629745;2,371456861;34,61526184
16,89542885;-3,111265182;36,48044968;1,811213613;36,65765506
16,90615156;-2,041056871;33,67324829;2,701856613;33,84307304
16,92337187;-0,568622887;23,06693649;4,414907932;23,4925159
16,93347979;0,125695586;19,03510094;4,156333923;19,48399288
16,94355213;-0,962469101;15,42703819;3,956418276;15,95534706
16,95590859;-2,309207439;11,9710083;4,352658749;12,94538979
16,97353046;-2,361880064;7,739256859;3,367444754;8,764374383
16,98341307;-1,362300754;4,605247021;2,597708941;5,46006
16,99554093;-0,154426008;1,347935557;2,102109194;2,501927401
17,0134513;2,874239206;-4,586093426;-0,023942016;5,412400313
17,02368635;3,53384161;-6,84023428;-0,416591108;7,71040788
17,033699;2,7521348;-7,966706276;-0,514753342;8,444384279
17,04353994;0,922964752;-7,540538311;-0,577002585;7,618695028
17,05343525;0,106541976;-5,063736439;-0,385466486;5,079504142
17,06351666;-0,214281052;-2,321178436;-0,229843363;2,342352167
17,07341244;-0,251391172;-0,494402647;-0,098162271;0,563264885
17,08363895;-0,107739076;0,542286694;-0,094570965;0,560915532
17,09354239;-0,216675252;1,019929886;-0,108936176;1,048366457
17,10342942;-0,691924274;0,494402647;0,142454997;0,862256693
17,1135377;-1,043871999;-0,402225882;0,336385339;1,168165017
17,12461807;-1,381454349;-1,256955862;0,492008448;1,931431197
17,13341505;-1,444900751;-1,8579005;0,524330199;2,411318023
17,14359156;-1,279700756;-2,183511972;0,488417149;2,577578296
17,15355937;-1,128866076;-2,261323452;0,351947635;2,551820823
17,1636114;-1,092953086;-2,055422068;0,1316811;2,33166169
17,1734065;-0,867898107;-1,520318031;-0,175973818;1,759426277
17,1834613;-0,926556051;-0,942118347;-0,378283858;1,374478727
17,19339229;-0,228646263;-0,125695586;-0,424970806;0,498676929
17,20342051;-0,069431849;0,433350503;-0,950498104;1,046928883
17,21340265;0,830788016;1,467645645;-1,174355984;2,05506799
17,22357682;1,319205165;2,647987127;-1,646013618;3,385483558
17,23371838;1,408987641;4,258087635;-0,474051923;4,510131008
17,24353406;1,48560214;6,317101002;-0,723048925;6,529592524
17,25361395;0,9648633;8,261193275;-1,626860023;8,474960121
17,26359062;1,295263171;11,99135876;-0,936132848;12,09738551
17,27359416;0,076614454;18,96806335;1,793257117;19,05279686
17,28341525;-0,70509243;28,20489311;4,532223701;28,57541255
17,2933938;-2,059013367;36,16561508;6,977900982;36,89013896
17,3034065;-6,063315868;38,97520828;6,449979305;39,96789828
17,31429426;-0,293289721;38,00316238;0,954089403;38,01626832
17,32359442;-1,016338587;33,77859497;2,37863946;33,87749028
17,33357197;-0,987608194;32,42108154;1,418564558;32,46712528
17,34354479;-0,858321309;34,96611786;-0,536301196;34,98076232
17,35354171;-2,464830637;31,58790016;0,434547603;31,68690042
17,36349817;-1,945288897;25,78435516;-0,033518825;25,85765348
17,37347156;0,767341673;23,31114578;0,48243165;23,3287606
17,38382484;1,422155857;21,41972542;0,719457626;21,47893814
17,39352369;1,355118155;19,07699966;-0,310049117;19,12758197
17,4040864;1,416170359;16,22430801;-0,001197101;16,28599737
17,41338249;1,424550056;12,77546024;0,918176353;12,88738822
17,42348822;1,054645896;9,151836395;1,608903527;9,351842489
17,43350312;1,371877551;6,640318394;1,735796213;6,999204589
17,44357005;0,687135875;3,475183725;1,211466074;3,743889379
17,45357458;0,459686726;0,609324336;0,93134445;1,20415552
17,46339098;0,614112735;-1,827973008;1,136048675;2,238130104
17,473404;0,44651863;-3,543418407;1,272518158;3,791371171
17,48426843;0,745793819;-4,917690277;1,37546885;5,160600802
17,49346494;0,897825658;-5,827486992;1,061828494;5,991091328
17,50373749;1,203086376;-5,753266811;0,562637389;5,904579296
17,51416114;0,719457626;-4,723760128;0,325611442;4,789316427
17,52344531;-0,161608621;-3,472789526;0,094570965;3,477833824
17,53551479;-0,873883605;-1,496376038;-0,05865794;1,733855402
17,55341374;-0,374692559;-0,933738649;0,142454997;1,016147531
17,56338468;-0,135272399;-1,007958889;0,178368032;1,032518716
17,57339708;0,004788403;-1,191115379;0,134075299;1,198647138
17,58338182;0,021547815;-1,294066072;0,08379706;1,296955378
17,59352968;-0,090979666;-1,210268974;0,237025961;1,236612145
17,6034065;-0,263362199;-0,976834297;0,585382342;1,168861574
17,61371546;-0,37349546;-0,542286694;1,100135684;1,282135812
17,62360359;-0,318428814;0,033518825;1,316810966;1,355179523
17,63344119;-0,278924495;0,575805485;0,694318473;0,944155164
17,64340124;-0,189141929;0,933738649;0,004788403;0,952714786
17,65670083;0,007182605;1,26294136;0,277727395;1,293137648
17,67358296;0,386663586;1,732204914;2,00873518;2,680496151
17,68339911;0,673967779;1,78368032;2,779668093;3,3708015
17,69336609;1,222239971;2,171540976;3,441664934;4,24906087
17,70342421;0,984016895;3,008314371;3,839102507;4,975635905
17,71436541;0,48362875;4,893748283;4,046200752;6,368234414
17,72346624;-1,371877551;7,781155586;2,863465309;8,404038544
17,73345697;-1,30124867;13,71159267;3,269282341;14,15589025
17,74339598;0,161608621;27,00300407;5,904101372;27,64139576
17,75667406;-1,045069098;39,2218132;7,049726963;39,86403706
17,77360749;-1,44849205;29,37924957;3,191470861;29,58756362
17,78342255;-3,928884983;31,93027115;1,929726601;32,22890314
17,79354468;-3,518279314;36,72944641;0,18435353;36,89802853
17,80386593;-2,389413357;35,12054443;1,408987641;35,22991887
17,81573286;-1,452083349;30,04723167;3,784035683;30,31936021
17,83337786;-0,600944638;19,88504219;4,768052578;20,45752582
17,84351046;-0,822408259;15,94418621;4,738125324;16,65362606
17,85338437;-1,238999367;12,78743172;4,256890774;13,53420291
17,86351187;-1,314416766;10,01973438;3,709815502;10,76501275
17,873639;-1,29885447;6,989871979;3,035847664;7,730569465
17,88341729;-1,539471745;3,806780815;2,393004656;4,752686052
17,89355031;-1,908178806;1,07858789;1,26653266;2,531521908
17,90353744;-1,414973259;-1,273715258;0,250194073;1,92018149
17,91352192;0,248996973;-4,100070477;-0,664390981;4,161008625
17,92354869;0,574608386;-5,793968201;-0,647631586;5,858299154
17,93363598;1,096544385;-6,453570843;-0,878672004;6,604774841
17,94361817;0,824802458;-6,333860397;-1,181538582;6,49570012
17,9533965;0,16639702;-4,639962673;-0,725443125;4,69927753
17,96354895;-0,107739076;-2,002749681;-0,328005642;2,032289767
17,97339051;0,312443316;-0,59495914;-0,1316811;0,684789833
17,98352322;0,18674773;0,143652096;0,067037649;0,244958539
17,99350062;0,318428814;0,518344641;0,344765037;0,699243168
18,0035827;0,48123455;0,266953498;0,366312861;0,661086965
18,01350354;0,735019922;-0,260968;0,216675252;0,80951019
18,02470734;0,78050977;-0,951695204;0,092176765;1,23426732
18,03387869;0,584185243;-1,505952835;-0,020350715;1,615419602
18,04361343;0,207098454;-1,9309237;-0,16879122;1,949319518
18,05365213;-0,338779539;-2,15478158;-0,555454791;2,250863225
18,0648652;-0,750582218;-1,983596087;-0,768538773;2,255810042
18,07640505;-0,897825658;-1,438915253;-0,407014281;1,744198567
18,09343374;-0,642843127;-0,464475125;-0,666785181;1,036140389
18,1034415;-0,380678058;-0,29688102;-0,338779539;0,589767496
18,11350025;0,016759412;-0,231040463;0,197521642;0,3044263
18,12361676;0,792480767;0,141257897;0,628477931;1,021256123
18,13515213;0,990002394;0,770932972;0,916979253;1,554121404
18,14360859;1,521515131;1,775300503;1,745373011;2,917709224
18,15352156;1,271321058;3,110068083;2,135627985;3,981166613
18,16353156;0,675164878;5,096058369;2,912546396;5,908348756
18,17340973;0,142454997;8,200140953;3,684676409;8,991075871
18,18338317;-0,599747539;13,6649065;6,72890377;15,24360564
18,19339192;-3,084928989;21,63759804;9,651026726;23,89235762
18,2034214;7,807491779;37,98999405;15,71553993;41,84704017
18,21342005;7,593210697;39,2218132;1,605312228;39,98230242
18,22353447;-5,410895824;30,6290226;-2,188300371;31,18017764
18,23359369;-8,796297073;26,63310051;3,615244627;28,28014991
18,24364854;-1,899798989;31,50889206;5,811924458;32,09669735
18,2534227;-1,180341482;32,47255707;0,683544576;32,50119077
18,26348765;-6,517016888;29,25115967;-0,538695395;29,97318875
18,27365494;-3,714603901;29,17454529;2,626439333;29,52711565
18,28340515;-3,312378168;30,11307144;2,258929253;30,37880317
18,29614682;-2,353500366;27,02574921;2,930502892;27,28585588
18,31348963;0,308852017;21,57654572;1,587355733;21,63706109
18,32340005;0,622492433;19,39782143;1,841141105;19,49494225
18,33343843;0,848744512;16,22789955;2,651578426;16,46499193
18,34351916;0,721851826;12,90115547;3,060986757;13,27895035
18,35340838;0,699106872;10,00417137;3,207033157;10,52887729
18,36350827;0,712275028;7,680599213;3,210624456;8,355061303
18,37364807;1,065419793;5,646724701;2,837129116;6,408581809
18,38341223;1,145625472;3,552995205;2,311601639;4,390869479
18,39351244;1,590947032;1,538274646;1,613691926;2,738868923
18,4034902;1,207874775;-0,217872351;1,735796213;2,12589236
18,41339999;1,438915253;-3,144783974;1,139639974;3,641280354
18,42545718;0,183156431;-5,868188381;1,842338204;6,153323591
18,43367921;0,183156431;-5,868188381;1,842338204;6,153323591
18,44411036;-0,324414343;-7,228095055;-1,193509579;7,333148567
18,4537964;-0,848744512;-6,270414352;-1,314416766;6,462673969
18,46341291;-0,867898107;-4,395754337;-0,578199685;4,517766948
18,47359452;-0,487220049;-2,922123194;-0,22146365;2,970729453
18,48342338;-0,105344877;-2,105700493;0,05865794;2,109149796
18,49359567;0,319625914;-1,508347034;0,132878199;1,54755553
18,50346525;0,513556242;-0,773327172;0,48123455;1,045639336
18,51459676;0,500388145;-0,075417355;0,858321309;0,996389253
18,52341067;0,634463429;0,586579442;0,912190855;1,256467843
18,53353005;0,888248801;1,173158884;0,599747539;1,589020079
18,54358187;1,44729495;1,656787634;0,191536129;2,208233236
18,55356119;1,867477298;1,9333179;-0,130484;2,691136495
18,56351067;1,788468719;1,644816518;-0,345962137;2,454329141
18,57361041;1,424550056;1,130063176;-0,650025785;1,931040954
18,5835326;0,586579442;0,665588081;-0,769735873;1,174553638
18,5943002;-0,55784899;0,441730201;-0,63087213;0,950957786
18,60367614;-1,866280198;0,548272192;-0,064643443;1,946222739
18,61340921;-2,506729126;1,012747288;0,022744916;2,703676259
18,6235402;-2,52947402;1,673547029;0,756567717;3,125922774
18,63349911;-1,541865945;3,078943491;1,71065712;3,844943614
18,64355468;-1,889025092;4,071340084;1,493981838;4,730349629
18,65361223;-1,751358509;5,852625847;1,909375906;6,400484535
18,66343281;-1,516726732;8,713697433;2,00753808;9,069685336
18,67337781;-1,053448796;11,82137108;2,524685621;12,13377954
18,68351171;-0,130484;25,74245644;4,726154327;26,17303238
18,69355057;-2,298433542;36,45291901;9,260771751;37,68102963
18,70392421;-0,951695204;39,2218132;9,147047997;40,28554135
18,71361005;-0,405817181;38,77289963;3,217807055;38,90831165
18,72342723;-1,344344258;31,57114029;2,732981205;31,71771346
18,7333702;-2,618059635;32,85682678;3,798400879;33,17910716
18,74358588;-2,607285738;35,44017029;2,178723574;35,60267469
18,75367624;-0,867898107;34,30292511;0,797269166;34,32316355
18,76349838;0,621295333;30,97977257;0,849941611;30,99765664
18,77355624;1,027112484;27,69253349;1,274912357;27,7408863
18,78361348;1,44849205;24,84103966;1,772906303;24,9463139
18,79338786;1,539471745;22,17868805;2,146401882;22,33542518
18,8034201;1,398213744;19,34874153;2,651578426;19,57957274
18,81350812;1,253364563;15,97890186;2,904166698;16,28896595
18,82368103;0,848744512;12,47019958;2,71263051;12,79001991
18,83351958;0,234631762;9,212887764;2,398990154;9,522998833
18,84355265;0,222660765;6,555324078;2,225410461;6,926348482
18,85427192;0,405817181;3,8654387;2,318784237;4,525821943
18,86359812;0,835576415;1,674744129;3,015496969;3,54910944
18,87355437;-0,111330383;-1,56101954;2,798821688;3,206646114
18,88353432;0,126892686;-4,042609692;2,662352324;4,842201438
18,89360343;-0,117315881;-6,119579315;1,880645394;6,40311183
18,90363598;-0,615309834;-7,21492672;0,190339029;7,243618068
18,91358255;-0,691924274;-5,68383503;-0,049081136;5,726006357
18,92340156;-1,235408068;-3,423708439;0,16759412;3,643638341
18,93343062;-1,295263171;-1,976413488;0,177170932;2,369663795
18,94519171;-1,120486379;-1,194706678;-0,027533319;1,63816112
18,9534001;-0,821211159;-0,833182216;-0,089782566;1,173303576
18,96339531;-0,415394008;-0,660799682;0,153228909;0,795416558
18,97342838;-0,090979666;-0,568622887;0,244208574;0,625497494
18,98382531;0,08259996;-0,554257691;0,021547815;0,560792876
18,99360791;0,10055647;-0,676361978;-0,270544797;0,735371754
19,00339005;-0,039504327;-0,883460402;-0,420182407;0,979089439
19,01363322;-0,22146365;-1,067813993;-0,383072257;1,155862113
19,02352702;-0,44651863;-1,195903778;-0,222660765;1,295817329
19,03341103;-0,645237386;-1,219845772;-0,290895492;1,410310313
19,04359234;-0,636857629;-1,200692177;-0,48362875;1,442617798
19,05337083;-0,263362199;-1,11450088;-0,442927301;1,227866627
19,06355275;0,411802679;-1,049857497;-0,398634583;1,196115271
19,07656083;1,043871999;-0,932541549;-0,858321309;1,641955529
19,0940801;1,78368032;-0,016759412;-0,59495914;1,880365055
19,10338468;1,966836691;1,162384868;-0,44651863;2,327866842
19,11347291;3,004723072;2,651578426;0,456095427;4,033268145
19,12353666;-1,406593442;4,510675907;0,89184016;4,808334548
19,13340708;-6,617573261;10,71644688;3,807977915;13,15808517
19,14356083;-5,936423302;22,03503609;5,896918774;23,57026915
19,15344187;-1,335964561;37,77212143;12,13980007;39,69751509
19,16362353;6,627150536;39,2218132;2,018311977;39,8289259
19,17343171;4,27724123;31,7195816;0,676361978;32,01381132
19,1834465;-3,995922565;21,53225327;1,841141105;21,97715014
19,19361432;-7,892486095;24,98948097;-0,390254885;26,20911664
19,20354296;-4,186261654;33,42425156;-0,363918662;33,68735394
19,21359499;-0,638054729;36,63008881;0,48123455;36,63880602
19,22342827;0,544680893;33,17286301;0,730231524;33,1853696
19,23503145;2,390610456;30,2555275;-0,475249052;30,35354714
19,24341838;0,549469292;28,78788185;0,737414122;28,80256651
19,25379432;-1,065419793;26,27995491;1,926135302;26,37197654
19,26338546;-1,614889026;23,1172142;2,456450939;23,30338195
19,27343817;-0,654814184;20,05862236;2,495955229;20,22391913
19,28356411;-0,257376671;16,63850403;2,882618904;16,88832587
19,29622577;-0,453701228;12,68328381;3,003525972;13,04195925
19,31412218;-0,055066638;9,737217903;3,185485363;10,24518237
19,32364062;-0,181959331;7,329848289;2,925714493;7,894275802
19,33370228;-0,627280831;5,31512785;2,146401882;5,766377228
19,34385885;-0,114921682;1,180341482;0,623689532;1,339925983
19,35339025;-0,906205356;-1,146822572;0,836773515;1,68422091
19,3635501;-0,111330383;-2,458845139;1,238999367;2,755618497
19,37367614;0,18674773;-3,726574898;1,323993564;3,959191097
19,38385635;0,602141738;-4,914099216;0,474051923;4,973496859
19,39395109;0,833182216;-5,843049049;-0,324414343;5,911062465
19,40338687;0,842759013;-6,02022028;-0,654814184;6,114088369
19,41338885;0,587776542;-5,53419733;-0,475249052;5,585578127
19,42340853;0,426167905;-4,343081951;-0,110133275;4,365330372
19,43366447;0,343567938;-3,268085241;-0,180762231;3,291062907
19,44359041;0,336385339;-2,407369852;-0,154426008;2,435658452
19,45338603;0,29807812;-1,711854219;0,010773907;1,737645393
19,4635327;0,051475335;-1,097741485;0,107739076;1,104216367
19,4740302;-0,278924495;-0,489614248;0,086191259;0,570043787
19,48340192;-0,623689532;0,062249243;0,017956512;0,627045483
19,4934764;-0,988805294;0,532709897;0,003591303;1,12317792
19,50338661;-0,990002394;1,024718285;0,081402861;1,427157569
19,51338624;-0,860715508;1,681926727;0,141257897;1,894640466
19,52386817;-0,717063427;2,079364061;0,038307227;2,199864155
19,53366291;-0,363918662;2,141613483;-0,023942016;2,172445241
19,54383603;-0,055066638;1,804031014;-0,068234749;1,806160629
19,55465161;0,16759412;0,89184016;0,496796846;1,034540365
19,5645638;0,434547603;0,602141738;0,130484;0,753944538
19,57372906;0,958877802;0,974440098;1,106121182;1,758546051
19,5835065;0,865503907;1,853112102;1,976413488;2,844175056
19,59628249;0,240617275;2,570175409;1,382651448;2,928382375
19,60428281;0,051475335;4,903325081;2,766499996;5,630165964
19,6135988;-1,367089152;7,630321026;2,659958124;8,195493208
19,62359723;-2,196680069;11,60469532;2,547430515;12,0823739
19,63352713;-4,170699596;18,45331001;0,975637197;18,94389753
19,64337978;-9,825803757;29,56958771;6,665457726;31,86432587
19,65337755;-4,5394063;39,2218132;13,96059036;41,87905113
19,66335067;1,248576164;39,2218132;3,98036027;39,44303286
19,67355645;2,224213362;34,40467834;1,006761789;34,49119578
19,68364624;-0,442927301;30,29263687;3,037044764;30,44772034
19,69361593;-2,938882589;34,34362793;1,9333179;34,52331862
19,70354812;-2,938882589;36,19793701;0,828393817;36,32649049
19,71353296;-2,997540474;32,81373215;1,661576033;32,99222789
19,72359145;-2,747346401;28,16897964;2,217030764;28,3893387
19,73356244;-1,741781712;24,86258698;1,844732404;24,99170007
19,74570864;-0,957680702;21,64238548;2,111685991;21,76624036
19,76349067;-0,597353339;14,73272038;1,63643682;14,83535662
19,7734015;-0,584185243;11,57716274;1,33835876;11,66889771
19,78478103;-0,003591303;5,904101372;1,474828243;6,085519226
19,79346197;-0,003591303;5,904101372;1,474828243;6,085519226
19,80343353;0,841561913;1,499967337;0,851138711;1,919001191
19,81340124;0,356736064;-1,420958757;0,071826048;1,466814027
19,82368489;0,754173517;-3,277662039;0,153228909;3,366797474
19,8338551;0,915782154;-4,844666958;0,162805721;4,933149155
19,84354072;0,562637389;-5,713762283;0,328005642;5,750758903
19,85339275;0,336385339;-5,030217648;0,647631586;5,082880222
19,86338833;0,355538964;-3,810372114;0,74220252;3,898231418
19,87344682;0,087388359;-2,321178436;1,059434295;2,553019209
19,88352197;-0,019153614;-1,205480576;1,112106681;1,640223018
19,89344447;0,278924495;-0,678756177;0,932541549;1,186651829
19,90401244;0,232237563;-0,416591108;0,82001406;0,948633488
19,91341807;0,246602774;-0,284909993;0,658405483;0,758606889
19,92343781;0,14724341;-0,234631762;0,55904609;0,623911224
19,93339249;-0,01436521;-0,317231715;0,578199685;0,659664457
19,94340494;-0,311246216;-0,567425787;0,432153404;0,778204855
19,95426536;-0,760159016;-0,85353291;0,367509961;1,200593074
19,96341994;-1,191115379;-1,025915384;0,314837515;1,603240744
19,97413708;-1,532289028;-1,101332784;0,155623108;1,893426027
19,98339796;-1,768117905;-1,010353088;0,217872351;2,048053381
19,9933902;-1,684320927;-0,81881696;0,521935999;1,944174731
20,00349374;-1,387439847;-0,750582218;0,600944638;1,688045454
20,01344796;-0,958877802;-0,948103845;0,095768064;1,351857634
20,02340838;-0,22146365;-1,128866076;0,178368032;1,164130543
20,03341546;1,996764183;-0,784101069;-0,766144514;2,277906738
20,04341723;3,01310277;0,416591108;-1,000776291;3,20216952
20,05341671;3,812766314;2,437297344;0,514753342;4,554401861
20,06338708;3,699041605;4,795586109;0,990002394;6,136828144
20,07345515;3,27407074;8,179790497;2,501940727;9,159051216
