Time (s);Acceleration x (m/s^2);Acceleration y (m/s^2);Acceleration z (m/s^2);Absolute acceleration (m/s^2)
0,411911885;0,189141929;9,692028046;2,219424963;9,944698561
0,413911885;0,150834709;9,699210167;2,379836559;9,988045405
0,415897885;0,150834709;9,699210167;2,379836559;9,988045405
0,417897885;0,129286885;9,687239647;2,389413357;9,978407852
0,419897885;0,093373865;9,646537781;2,221819162;9,8995399
0,421897885;0,081402861;9,648932457;2,341529369;9,929314366
0,423897885;0,067037649;9,617807388;2,425326347;9,919118958
0,425897885;0,057460841;9,608230591;2,315192938;9,883395933
0,427897635;0,052672438;9,610625267;2,214636564;9,862631876
0,429897412;0,047884032;9,615413666;2,389413357;9,907964929
0,431897212;0,050278235;9,608230591;2,353500366;9,892400465
0,43389703;0,057460841;9,624990463;2,197877169;9,872912803
0,435894696;0,057460841;9,624990463;2,197877169;9,872912803
0,437894542;0,033518825;9,61301899;2,238578558;9,870283257
0,439894399;0,038307227;9,610625267;2,11647439;9,840988228
0,441894132;0,062249243;9,624990463;2,00873518;9,832564946
0,443893882;0,047884032;9,639355659;2,164358377;9,8794695
0,445893646;0,02873042;9,641749382;2,145204782;9,877553348
0,447893423;0,023942016;9,656114578;1,9321208;9,847548566
0,449893212;0,021547815;9,670479774;2,001552582;9,875467387
0,451893012;0,007182605;9,665691376;2,056619167;9,882070823
0,453892821;0,011971008;9,706393242;1,8602947;9,883061744
0,455891366;0,011971008;9,706393242;1,8602947;9,883061744
0,457891105;0,004788403;9,720758438;2,039859772;9,932481836
0,459890855;0,002394202;9,732728958;2,023100376;9,940772296
0,461890615;0,002394202;9,747094154;1,845929503;9,920348074
0,463890384;0;9,766247749;1,980004787;9,96493924
0,465890161;0,002394202;9,771036148;2,075772762;9,989093337
0,467889946;-0,007182605;9,778219223;1,984793186;9,977626309
0,469889739;-0,01436521;9,799766541;1,936909199;9,989356729
0,471889539;-0,033518825;9,799766541;2,128445387;10,02830133
0,473889272;-0,02873042;9,804554939;1,951274395;9,996879251
0,475889005;-0,021547815;9,809343338;1,987187386;10,00862602
0,477888738;-0,031124622;9,811738014;2,097320795;10,03344039
0,479888471;-0,026336219;9,799766541;2,161964178;10,03544752
0,481888204;-0,031124622;9,783007622;2,066195965;9,998868568
0,483887937;-0,01436521;9,790189743;1,994369984;9,991272852
0,48588767;-0,026336219;9,802161217;2,190694571;10,04401318
0,48788747;-0,009576807;9,799766541;2,15478158;10,03387261
0,489887203;0,011971008;9,816526413;1,953668594;10,00905366
0,491886936;0,009576807;9,821314812;2,068590164;10,03680136
0,493886669;0,023942016;9,840468407;1,884236693;10,01926842
0,495886402;0,023942016;9,840468407;1,884236693;10,01926842
0,497886135;0,02873042;9,878775597;1,886630893;10,05735596
0,499885868;0;9,929053307;2,027888775;10,13402351
0,501885668;0,009576807;9,938630104;1,980004787;10,13394686
0,503885468;0,033518825;9,986514091;1,764526606;10,14125936
0,505885201;0,055066638;10,06073475;1,872265697;10,23361104
0,507884934;0,045489833;10,10622501;1,908178806;10,28489182
0,509884667;0,047884032;10,12537861;1,798045516;10,28389773
0,5118844;0,076614454;10,20678139;1,728613615;10,35240847
0,513884133;0,057460841;10,27142429;1,831564307;10,43360372
0,515883866;0,064643443;10,27142429;1,714248419;10,41369211
0,517883666;0,067037649;10,29776096;1,618480325;10,42438744
0,519883399;0,050278235;10,36001015;1,726219416;10,50296014
0,521883132;0,04309563;10,40549946;1,774103403;10,55574342
0,523882865;0,059855044;10,41028786;1,659181833;10,54184805
0,525882598;0,093373865;10,44380665;1,589749932;10,5645218
0,527882331;0,093373865;10,47732544;1,769315004;10,62607842
0,529882064;0,081402861;10,47732544;1,742978811;10,62162652
0,531881797;0,057460841;10,48450851;1,544260144;10,5977809
0,533881597;0;10,48211479;1,714248419;10,62136423
0,53588133;0;10,48211479;1,714248419;10,62136423
0,537881063;-0,011971008;10,45338345;1,59693253;10,57466606
0,539880796;-0,059855044;10,42225933;1,52510643;10,53342403
0,541880529;-0,138863698;10,38395214;1,707065821;10,52424909
0,543880262;-0,153228909;10,34564495;1,690306425;10,48393935
0,545879995;-0,172382519;10,29057789;1,510741234;10,40230975
0,547879728;-0,193930343;10,2283287;1,656787634;10,36345803
0,549879528;-0,208295554;10,19720459;1,70946002;10,34159669
0,551879294;-0,208295554;10,09664822;1,616086125;10,22728833
0,55387906;-0,237025961;9,960178375;1,798045516;10,12394697
0,555878826;-0,237025961;9,960178375;1,798045516;10,12394697
0,557878592;-0,248996973;9,90271759;1,78128612;10,06473027
0,559878358;-0,229843363;9,787796021;1,628057122;9,924935713
0,561878124;-0,229843363;9,689633369;1,78128612;9,85468432
0,56387789;-0,222660765;9,646537781;1,850717902;9,824989859
0,565877723;-0,196324542;9,545981407;1,742978811;9,705785877
0,567877489;-0,16759412;9,483732224;1,697489023;9,635908554
0,569877255;-0,210689753;9,419088364;1,908178806;9,612739575
0,571877021;-0,229843363;9,373599052;1,877054095;9,56245362
0,573876787;-0,179565132;9,249100685;1,757344007;9,416281914
0,575876553;-0,179565132;9,249100685;1,757344007;9,416281914
0,577876319;-0,160411507;9,234735489;1,771709204;9,404521514
0,579876152;-0,16759412;9,198822021;1,649604917;9,347064285
0,581875985;-0,16759412;9,179668427;1,577778935;9,315781587
0,583875751;-0,158017308;9,174880028;1,699883223;9,332362829
0,585875517;-0,143652096;9,162909508;1,63763392;9,309210032
0,587875283;-0,143652096;9,138967514;1,391031146;9,245341032
0,589875049;-0,1316811;9,134179115;1,474828243;9,253414849
0,591874815;-0,119710088;9,124602318;1,458068848;9,241139688
0,593874581;-0,093373865;9,172486305;1,235408068;9,255779643
0,595874414;-0,093373865;9,172486305;1,235408068;9,255779643
0,597874247;-0,090979666;9,194033623;1,37666595;9,296974814
0,599874013;-0,081402861;9,20361042;1,335964561;9,300423243
0,601873779;-0,067037649;9,196428299;1,120486379;9,264679014
0,603873545;-0,052672438;9,215581894;1,235408068;9,298169558
0,605873311;-0,062249243;9,220370293;1,302445769;9,312114061
0,607873077;-0,04309563;9,206005096;1,15161097;9,277855081
0,609872843;-0,011971008;9,217975616;1,091755986;9,282410727
0,611872643;-0,002394202;9,234735489;1,268926859;9,321508497
0,613872376;0,02873042;9,20361042;1,074996591;9,266222956
0,615872109;0,035913024;9,217975616;1,106121182;9,284172999
0,617871842;0,02873042;9,232340813;1,204283476;9,310598316
0,619871575;0,050278235;9,227552414;1,273715258;9,315181266
0,621871308;0,067037649;9,239523888;1,134851575;9,309198881
0,623871041;0,093373865;9,263465881;1,127668977;9,332317833
0,625870774;0,079008654;9,277831078;1,302445769;9,369138533
0,627870574;0,090979666;9,270648003;1,26653266;9,357205601
0,629870307;0,122104287;9,275436401;1,091755986;9,340265576
0,63187004;0,134075299;9,313743591;1,233013868;9,395962913
0,633869773;0,158017308;9,349657059;1,175553083;9,424594508
0,635869506;0,158017308;9,349657059;1,175553083;9,424594508
0,637869239;0,18435353;9,385569572;1,15161097;9,457753975
0,639868972;0,191536129;9,440636635;1,323993564;9,534949665
0,641868705;0,18435353;9,45979023;1,278503656;9,547575033
0,643868505;0,191536129;9,502885818;1,098938584;9,568134143
0,645868238;0,20350714;9,572318077;1,233013868;9,653549178
0,647867971;0,20590134;9,593865395;1,280897856;9,681185252
0,649867704;0,20350714;9,634567261;1,091755986;9,698362366
0,651867437;0,193930343;9,689633369;1,039083481;9,747117435
0,65386717;0,213083953;9,775824547;1,019929886;9,83119562
0,655867003;0,213083953;9,775824547;1,019929886;9,83119562
0,657866736;0,222660765;9,785401344;0,952892303;9,834208714
0,659866536;0,189141929;9,842862129;1,113303781;9,907429277
0,661866269;0,165199921;9,87638092;1,18991828;9,949175675
0,663866002;0,141257897;9,873987198;1,063025594;9,932049154
0,665865735;0,10055647;9,905111313;1,060631394;9,962242753
0,667865468;0,04309563;9,929053307;1,271321058;10,01020549
0,669865201;0,031124622;9,919476509;1,244984865;9,997348162
0,671864934;-0,02873042;9,900322914;1,101332784;9,961433288
0,673864734;-0,14844051;9,881169319;1,321599364;9,970264118
0,675864534;-0,14844051;9,881169319;1,321599364;9,970264118
0,677864267;-0,134075299;9,893140793;1,230619669;9,970287644
0,679864;-0,088585466;9,895534515;1,22583127;9,971565225
0,681863733;-0,08379706;9,859622002;1,393425345;9,957951705
0,683863466;-0,107739076;9,830891609;1,321599364;9,91991242
0,685863199;-0,198718742;9,802161217;1,419761658;9,906441178
0,687862932;-0,213083953;9,790189743;1,422155857;9,895238615
0,689862732;-0,217872351;9,778219223;1,419761658;9,883155503
0,691862465;-0,210689753;9,756670952;1,424550056;9,862370967
0,693862198;-0,193930343;9,718363762;1,424550056;9,824130804
0,695861931;-0,193930343;9,718363762;1,424550056;9,824130804
0,697861664;-0,18674773;9,703998566;1,424550056;9,809781126
0,699861397;-0,179565132;9,682451248;1,441309452;9,7907854
0,70186113;-0,198718742;9,639355659;1,407790542;9,743641048
0,703860863;-0,189141929;9,632172585;1,400607944;9,735308212
0,705860663;-0,172382519;9,615413666;1,41018486;9,719800257
0,707860396;-0,162805721;9,591471672;1,414973259;9,696648074
0,709860129;-0,174776718;9,555558205;1,422155857;9,66238929
0,711859862;-0,172382519;9,548376083;1,426944256;9,655950055
0,713859595;-0,162805721;9,495702744;1,472434044;9,610563891
0,715859228;-0,162805721;9,495702744;1,472434044;9,610563891
0,717858961;-0,16759412;9,476549149;1,501164436;9,596174562
0,719858694;-0,196324542;9,435848236;1,52510643;9,560320334
0,721858494;-0,191536129;9,39514637;1,527500629;9,520436942
0,723858227;-0,208295554;9,349657059;1,541865945;9,478228988
0,72585796;-0,198718742;9,330503464;1,553836942;9,461088376
0,727857693;-0,198718742;9,308955193;1,565807939;9,441816055
0,729857426;-0,20350714;9,289801598;1,594538331;9,427851365
0,731857159;-0,220266551;9,275436401;1,618480325;9,418158862
0,733856892;-0,251391172;9,215581894;1,632845521;9,362496017
0,735856625;-0,251391172;9,215581894;1,632845521;9,362496017
0,737856425;-0,304063618;9,198822021;1,649604917;9,350506812
0,739856158;-0,337582439;9,174880028;1,625662923;9,323902904
0,741855891;-0,325611442;9,146149635;1,563413739;9,284521446
0,743855624;-0,287304193;9,148544312;1,572990537;9,287233493
0,745855357;-0,287304193;9,138967514;1,570596337;9,277394234
0,74785509;-0,304063618;9,112630844;1,575384736;9,252801341
0,749854823;-0,294486821;9,08868885;1,623268723;9,237206767
0,751854623;-0,292092621;9,079112053;1,642422318;9,231096622
0,753854423;-0,313640416;9,036016464;1,649604917;9,19071054
0,755854256;-0,313640416;9,036016464;1,649604917;9,19071054
0,757853989;-0,320823014;9,024045944;1,630451322;9,175767223
0,759853722;-0,316034615;9,019257545;1,632845521;9,171317738
0,761853455;-0,299275219;8,966584206;1,642422318;9,120677006
0,763853188;-0,301669419;8,968978882;1,654393315;9,12527281
0,765852921;-0,304063618;8,954613686;1,649604917;9,110365378
0,767852721;-0,306457818;8,945036888;1,651999116;9,101467047
0,769852454;-0,299275219;8,928277016;1,651999116;9,08475631
0,771852187;-0,294486821;8,940248489;1,651999116;9,096365572
0,77385192;-0,313640416;8,988132477;1,616086125;9,137649046
0,775851653;-0,313640416;8,988132477;1,616086125;9,137649046
0,777851386;-0,318428814;9,016862869;1,589749932;9,161469192
0,779851119;-0,29688102;9,047987938;1,553836942;9,18523997
0,781850852;-0,284909993;9,064746857;1,534683347;9,198155372
0,783850652;-0,280121595;9,122207642;1,505952835;9,249920773
0,785850385;-0,299275219;9,160514832;1,460463047;9,281031729
0,787850118;-0,289698392;9,184456825;1,438915253;9,301002604
0,789849851;-0,275333196;9,24191761;1,398213744;9,351141703
0,791849584;-0,265756398;9,313743591;1,321599364;9,410795451
0,793849317;-0,239420176;9,42148304;1,290474772;9,512464971
0,79584905;-0,239420176;9,42148304;1,290474772;9,512464971
0,797848783;-0,244208574;9,435848236;1,288080573;9,526490504
0,799848583;-0,227449164;9,474155426;1,314416766;9,567603963
0,801848316;-0,208295554;9,495702744;1,30005157;9,586547435
0,803848049;-0,16759412;9,502885818;1,319205165;9,595479609
0,805847782;-0,158017308;9,476549149;1,343147159;9,572564835
0,807847515;-0,172382519;9,450213432;1,386242747;9,552901057
0,809847248;-0,165199921;9,431059837;1,41257906;9,537691559
0,811846981;-0,150834709;9,414299965;1,453280449;9,527004724
0,813846714;-0,098162271;9,347262383;1,546654344;9,474866202
0,815846414;-0,105344877;9,323320389;1,570596337;9,455272258
0,817846147;-0,119710088;9,292196274;1,59932673;9,429585785
0,81984588;-0,14844051;9,222764015;1,666364431;9,373269498
0,821845613;-0,105344877;9,131784439;1,714248419;9,29189067
0,823845346;-0,071826048;9,091083527;1,733402014;9,255141339
0,825845079;-0,04309563;8,995314598;1,798045516;9,173358689
0,827844812;-0,04309563;8,918700218;1,908178806;9,120647848
0,829844612;-0,062249243;8,880393028;1,953668594;9,092968508
0,831844412;-0,057460841;8,779836655;2,018311977;9,00901863
0,833844145;-0,021547815;8,564358711;2,097320795;8,817451954
0,835843878;-0,021547815;8,564358711;2,097320795;8,817451954
0,837843611;-0,033518825;8,50450325;2,130839586;8,767449822
0,839843344;-0,14844051;8,296208382;2,142810583;8,569757598
0,841843077;-0,052672438;8,114249229;2,102109194;8,382283579
0,84384281;-0,021547815;8,092700958;2,130839586;8,36855725
0,84584261;0,026336219;8,030451775;2,173935175;8,319545868
0,84784241;0,04309563;7,867646217;2,217030764;8,174162932
0,849842143;0,059855044;7,666532993;2,260126352;7,992964525
0,851841876;0,067037649;7,551611423;2,26970315;7,885612311
0,853841609;0,112527482;7,23557663;2,296039343;7,591971303
0,855841342;0,112527482;7,23557663;2,296039343;7,591971303
0,857841075;0,114921682;7,206846237;2,353500366;7,582269031
0,859840808;0,1316811;7,075165272;2,401384354;7,472747175
0,861840608;0,08379706;6,866869926;2,427720547;7,283869273
0,863840341;0,064643443;6,639420509;2,422932148;7,068004221
0,865840074;0,074220255;6,529287338;2,439691544;6,970595141
0,867839807;0,031124622;6,301837921;2,52827692;6,79016304
0,86983954;-0,016759412;5,997774601;2,580949545;6,529539156
0,871839273;-0,019153614;5,890035629;2,597708941;6,437466762
0,873839006;0,088585466;5,624279022;2,540247917;6,171970624
0,875838739;0,088585466;5,624279022;2,540247917;6,171970624
0,877838539;0,119710088;5,504569054;2,525882721;6,057614588
0,879838272;0,112527482;5,384859085;2,499546528;5,937769164
0,881838005;0,069431849;5,121496677;2,446874142;5,676419828
0,883837738;0,026336219;4,841075897;2,418143749;5,411481186
0,885837471;-0,002394202;4,687847137;2,430114746;5,28028164
0,887837204;-0,107739076;4,359841347;2,45166254;5,003046421
0,889836937;-0,110133275;4,120420933;2,406172752;4,772804764
0,89183667;-0,079008654;4,01747036;2,398990154;4,679900022
0,89383647;0,045489833;3,962403774;2,367865562;4,616221433
0,895836203;0,045489833;3,962403774;2,367865562;4,616221433
0,897835936;0,126892686;3,883395195;2,288856745;4,509514962
0,899835669;0,177170932;3,821146011;2,245761156;4,435762567
0,901835402;0,263362199;3,703830004;2,157175779;4,294312947
0,903835135;0,313640416;3,519476414;2,114080191;4,117574479
0,905834868;0,344765037;3,241749048;2,087743998;3,871236859
0,907834601;0,356736064;3,205836058;2,097320795;3,847518676
0,909834401;0,598550439;3,459621429;2,104503393;4,09343103
0,911834134;0,916979253;3,816357613;2,123656988;4,462662365
0,913833867;1,177947283;3,90254879;1,920149803;4,506042846
0,9158336;1,244984865;3,914519787;1,862688899;4,510328415
0,917833333;1,312022567;3,955221176;1,843535304;4,556731305
0,919833066;1,419761658;4,125209332;1,884236693;4,752201922
0,921832799;1,453280449;4,216189384;1,922544003;4,856382649
0,923832599;1,522712231;4,367023945;1,9321208;5,012249142
0,925832399;1,611297727;4,5394063;1,905784607;5,18020317
0,927832132;1,675941229;4,65193367;1,886630893;5,292319151
0,929831865;1,800439715;4,917989731;1,833958507;5,549018829
0,931831598;1,958456993;5,236418247;1,776497602;5,866137876
0,933831331;2,15478158;5,684134007;1,654393315;6,299958754
0,935831064;2,15478158;5,684134007;1,654393315;6,299958754
0,937830797;2,217030764;5,842151642;1,577778935;6,444792284
0,939830597;1,951274395;5,516540051;1,357512355;6,006873204
0,94183033;1,74776721;5,212476254;1,233013868;5,634263227
0,943830063;1,582567334;5,207687855;1,235408068;5,581287061
0,945829896;1,570596337;5,516540051;1,233013868;5,866797268
0,947829629;1,592144132;5,866093636;0,993593693;6,158993904
0,949829362;1,59932673;6,031293392;0,785298169;6,288961694
0,951829095;1,651999116;6,376058578;0,349553436;6,595863225
0,953828828;1,642422318;6,953061104;0,035913024;7,144501349
0,955828628;1,620874524;6,953061104;-0,01436521;7,139502734
0,957828361;1,604115129;7,319374084;-0,057460841;7,493311957
0,959828094;1,553836942;7,709628582;-0,126892686;7,865677585
0,961827827;1,517923832;8,092700958;-0,16759412;8,235532123
0,96382756;1,496376038;8,289025307;-0,191536129;8,425186518
0,965827293;1,424550056;8,655338287;-0,260968;8,775666814
0,967827026;1,333570361;9,000102997;-0,349553436;9,105078334
0,969826759;1,276109457;9,167697906;-0,399831682;9,264718324
0,971826559;1,134851575;9,52443409;-0,486022949;9,604111158
0,973826325;0,782903969;10,21396351;-0,720654726;10,26924206
0,975826091;0,782903969;10,21396351;-0,720654726;10,26924206
0,977825857;0,684741676;10,38395214;-0,806845963;10,43773604
0,979825623;0,488417149;10,75505352;-0,993593693;10,81188956
0,981825389;0,275333196;11,1309433;-1,213860273;11,20031981
0,983825155;0,146046311;11,32487297;-1,331176162;11,40377601
0,985824921;-0,114921682;11,68639755;-1,565807939;11,79138878
0,987824754;-0,390254885;12,088624;-1,778891921;12,22503929
0,98982452;-0,653617084;12,51957989;-1,968033791;12,69016363
0,991824286;-0,770932972;12,7470293;-2,056619167;12,93486668
0,993824052;-1,333570361;13,57542324;-2,384624958;13,84763381
0,995823818;-1,333570361;13,57542324;-2,384624958;13,84763381
0,997823584;-1,474828243;13,79808331;-2,439691544;14,08951085
0,99982335;-1,759738207;14,26974106;-2,473210335;14,58900126
1,001823183;-1,999158382;14,76085186;-2,442085743;15,09447464
1,003823016;-2,243366957;15,00984859;-2,372653961;15,36091589
1,005822682;-2,336740971;15,52939034;-2,327163935;15,87570517
1,007822448;-2,518700123;16,0561142;-2,176329374;16,39753222
1,009822214;-2,655169725;16,60917664;-2,013523579;16,94015797
1,01182198;-2,710236311;16,91563416;-1,922544003;17,2389163
1,013821746;-2,901772499;18,13907051;-1,625662923;18,44150055
1,015821512;-2,901772499;18,13907051;-1,625662923;18,44150055
1,017821345;-2,956839085;18,43834496;-1,510741234;18,73493531
1,019821111;-2,987963676;19,07280922;-1,455674648;19,36024192
1,021820877;-3,009511471;19,77191544;-1,345541358;20,04485672
1,023820643;-3,028665066;20,49736023;-1,22822547;20,7562792
1,025820409;-3,016694069;20,87324905;-1,180341482;21,12311945
1,027820175;-2,971204281;21,64178848;-1,065419793;21,87076091
1,029819941;-2,908955097;22,47496986;-0,89303726;22,68003099
1,031819707;-2,806004286;22,89156151;-0,644040287;23,07188844
1,033819507;-2,659958124;24,57977295;-0,122104287;24,72358236
1,03581924;-2,659958124;24,57977295;-0,122104287;24,72358236
1,037818973;-2,45405674;25,44168472;0,294486821;25,56146394
1,039818706;-2,351106167;25,87982368;0,464475125;25,99055042
1,041818439;-2,171540976;26,74891853;0,74220252;26,84718044
1,043818172;-1,965639591;27,57731247;0,952892303;27,66369292
1,045817905;-1,70946002;27,99869156;1,065419793;28,07105452
1,047817638;-1,592144132;28,86539268;1,101332784;28,9302394
1,049817438;-1,309628367;29,69618225;1,120486379;29,746157
1,051817171;-1,015141487;30,52457619;1,091755986;30,56095867
1,053816904;-0,342370838;31,96827888;0,940921247;31,98395544
1,055816637;-0,342370838;31,96827888;0,940921247;31,98395544
1,05781637;0;32,71766281;0,81642276;32,72784756
1,059816103;-0,129286885;32,43275452;0,627280831;32,4390777
1,061815836;-0,227449164;31,49901581;0,486022949;31,50358628
1,063815569;-0,323217243;30,60358429;0,342370838;30,60720599
1,065815369;-0,20350714;29,83983421;0,311246216;29,84215132
1,067815102;0,004788403;29,5237999;0,258573771;29,52493258
1,069814835;0,59615624;28,98510361;0,117315881;28,9914711
1,071814568;1,247379065;28,62597275;0,174776718;28,65367022
1,073814301;1,879448295;28,28839111;0,823605359;28,36271714
1,075814034;1,879448295;28,28839111;0,823605359;28,36271714
1,077813767;2,056619167;27,86222267;1,350329757;27,97063684
1,079813567;2,085349798;27,20621109;1,850717902;27,34870678
1,081813367;2,035071373;26,83510971;2,078166962;26,9922842
1,0838131;1,910573006;26,08811951;2,420537949;26,26974063
1,085812833;1,728613615;25,42253113;2,652775526;25,61894635
1,087812566;1,534683347;25,11846733;2,734178305;25,31340327
1,089812299;1,429338455;24,59892654;2,894589901;24,80985381
1,091812032;1,197100878;24,13894081;3,040636063;24,35912522
1,093811765;0,629675031;23,3225174;3,150769472;23,54280477
1,095811565;0,629675031;23,3225174;3,150769472;23,54280477
1,097811365;0,471657723;23,13337517;3,134010077;23,34946524
1,099811098;0,213083953;22,76466751;3,095702887;22,97517939
1,101810831;-0,062249243;22,58510399;3,066972494;22,7924794
1,103810564;-0,20350714;22,22357941;3,043030262;22,43187308
1,105810297;-0,486022949;21,90754318;3,110068083;22,13253691
1,10781003;-0,751779318;21,61305809;3,253720045;21,86952552
1,109809763;-0,859518409;21,45982933;3,327940464;21,73334384
1,111809563;-1,082179189;21,12703514;3,512293816;21,44432171
1,113809296;-1,505952835;20,57636833;4,048594952;21,02488879
1,115809029;-1,505952835;20,37525558;4,048594952;20,82810734
1,117808762;-1,592144132;20,16456604;4,197035789;20,65816439
1,119808495;-1,738190413;19,74318504;4,455609322;20,31420971
1,121808228;-1,838746905;19,30744171;4,702212334;19,9566805
1,123807961;-1,872265697;19,0704155;4,800374508;19,754233
1,125807694;-1,89860189;18,58439255;4,934749126;19,32190685
1,127807494;-1,927332401;18,09358025;4,992209911;18,86834429
1,129807227;-1,948880196;17,85655403;4,987421513;18,64213049
1,13180696;-1,968033791;17,32504272;5,004180908;18,14034424
1,133806693;-1,929726601;16,23567963;4,865017891;17,05841542
1,135806426;-1,929726601;16,23567963;4,865017891;17,05841542
1,137806159;-1,903390408;15,96513557;4,821922302;16,78568985
1,139805892;-1,814804912;15,39770985;4,750096321;16,21562211
1,141805625;-1,745373011;14,77282333;4,663905144;15,58956854
1,143805425;-1,695094824;14,46127796;4,604049683;15,27086049
1,145805158;-1,570596337;13,84596729;4,486733913;14,63927472
1,147804891;-1,438915253;13,20192719;4,38378334;13,98495316
1,149804624;-1,335964561;12,51957989;4,297592163;13,30390846
1,151804357;-1,302445769;12,1676321;4,244919777;12,95248933
1,15380409;-1,101332784;10,87715721;4,005499363;11,64343197
1,155803823;-1,101332784;10,87715721;4,005499363;11,64343197
1,157803556;-1,058237195;10,5228157;3,960009575;11,29297092
1,159803356;-0,962469101;9,878775597;3,871424198;10,6538481
1,161803089;-0,811634362;9,371204376;3,734954596;10,12067723
1,163802822;-0,682347476;8,789413452;3,60566783;9,524716658
1,165802555;-0,658405483;8,497321129;3,538630009;9,228210362
1,167802288;-0,574608386;7,915530205;3,335123062;8,608649084
1,169802021;-0,550666392;7,314585686;3,055001259;7,946032338
1,171801754;-0,577002585;6,984185696;2,928108692;7,595103839
1,173801554;-0,600944638;5,736806393;2,219424963;6,180447331
1,175801354;-0,600944638;5,736806393;2,219424963;6,180447331
1,177801087;-0,548272192;5,166986465;1,824381709;5,506970143
1,17980082;-0,588973641;4,845864296;1,654393315;5,154251446
1,181800553;-0,74459672;4,228160381;1,355118155;4,502011739
1,183800286;-0,78050977;3,624821424;1,065419793;3,857932762
1,185800019;-0,833182216;3,263296843;0,950498104;3,499535045
1,187799752;-0,969651699;2,60010314;0,663193882;2,853171372
1,189799552;-1,158793569;1,989581585;0,40940848;2,338557829
1,191799318;-1,328781962;1,443703651;0,225054964;1,974991512
1,193799084;-1,438915253;0,840364814;-0,023942016;1,66651233
1,19579885;-1,438915253;0,840364814;-0,023942016;1,66651233
1,197798616;-1,462857246;0,328005642;-0,234631762;1,517429105
1,199798382;-1,501164436;0,081402861;-0,299275219;1,532868797
1,201798148;-1,642422318;-0,366312861;-0,44532153;1,740703148
1,203797914;-1,678335428;-0,871489406;-0,48362875;1,951973453
1,205797747;-1,656787634;-1,235408068;-0,577002585;2,145719073
1,207797547;-1,668758631;-1,470039845;-0,574608386;2,296943036
1,209797347;-1,699883223;-1,953668594;-0,531512797;2,643658412
1,211797147;-1,675941229;-2,430114746;-0,395043284;2,978304195
1,213796947;-1,702277422;-3,071760893;-0,155623108;3,515349479
1,215796747;-1,690306425;-3,311181068;-0,090979666;3,718781141
1,217796547;-1,692700624;-3,557783842;-0,002394202;3,93993236
1,219796347;-1,719036818;-4,072536945;0,356736064;4,434851223
1,221796213;-1,721431017;-4,307168961;0,438138902;4,659076614
1,223796079;-1,740584612;-4,826710701;0,754173517;5,18609185
1,225795945;-1,750161409;-5,322609425;0,900219858;5,674824388
1,227795811;-1,733402014;-5,547664642;0,981622696;5,894476113
1,229795677;-1,786074519;-5,978621006;1,52510643;6,423388587
1,23179621;-1,738190413;-6,325780392;1,539471745;6,73845507
1,233796076;-1,587355733;-6,665756702;1,37666595;6,989078607
1,235795942;-1,587355733;-6,665756702;1,37666595;6,989078607
1,237795875;-1,534683347;-6,912359715;1,510741234;7,240048955
1,239795741;-1,438915253;-7,15896225;1,472434044;7,449112673
1,241795607;-1,364694953;-7,259518623;1,575384736;7,552803455
1,243795473;-1,288080573;-7,431901455;1,910573006;7,780912543
1,245795339;-1,15400517;-7,625831604;1,991975784;7,965739332
1,247795205;-1,017535686;-7,721599579;2,061407566;8,056542688
1,249795071;-0,945709646;-7,759906769;2,178723574;8,115254537
1,251794971;-0,761356115;-7,838915825;2,217030764;8,181900137
1,253794871;-0,399831682;-7,85567522;2,051830769;8,12905333
1,255794804;-0,268150598;-7,81976223;2,126051188;8,108062637
1,257794637;-0,150834709;-7,805397034;2,183511972;8,106460294
1,25979447;0,248996973;-7,700051785;2,018311977;7,964068069
1,261794303;0,825999558;-7,228394032;1,936909199;7,528849367
1,263794136;1,070208192;-6,768707275;2,027888775;7,146542985
1,265793969;1,493981838;-5,55724144;2,061407566;6,112635709
1,267793835;1,774103403;-4,19464159;1,936909199;4,94914924
1,269793635;1,831564307;-3,560178041;2,037465572;4,492300241
1,271793435;1,795651317;-2,437297344;2,430114746;3,882040658
1,273793235;1,458068848;-0,629675031;2,829946518;3,245158348
1,275793035;1,458068848;-0,629675031;2,829946518;3,245158348
1,277792835;1,345541358;-0,237025961;3,01429987;3,309481312
1,279792635;1,156399369;0,450109929;3,095702887;3,335151393
1,281792435;1,034295082;1,060631394;2,803610086;3,170951717
1,283792235;0,988805294;1,343147159;2,743755102;3,210914552
1,285791968;0,873883605;1,798045516;2,705447912;3,363939452
1,287791701;0,821211159;2,15478158;2,26970315;3,235587089
1,289791434;0,758961916;2,434903145;1,917755604;3,19101286
1,2917905;0,701501071;2,595314741;1,884236693;3,28300324
1,293790233;0,462080926;2,928108692;1,201889277;3,198730549
1,295789966;0,462080926;2,928108692;1,201889277;3,198730549
1,297789699;0,418985307;3,002328873;1,108515382;3,227744367
1,299789499;0,330399841;3,114856482;1,110909581;3,323494404
1,301789232;0,208295554;3,184288263;0,775721371;3,284025339
1,303788965;0,064643443;3,222595453;0,581790984;3,275329141
1,305788698;-0,023942016;3,253720045;0,63206923;3,31463103
1,307788431;-0,198718742;3,184288263;0,560243189;3,239298275
1,309788164;-0,363918662;3,038241863;0,258573771;3,07086483
1,311787897;-0,476446152;2,97359848;0,244208574;3,021411373
1,31378763;-0,861912608;2,580949545;0,04070143;2,721369233
1,31578733;-0,861912608;2,580949545;0,04070143;2,721369233
1,317787063;-1,046266198;2,329558372;-0,126892686;2,556876399
1,319786796;-1,127668977;2,212242365;-0,081402861;2,48440738
1,321786529;-1,285686255;1,900996208;-0,158017308;2,30037936
1,323786262;-1,422155857;1,587355733;-0,380678058;2,164980667
1,325785995;-1,48679924;1,431732655;-0,402225882;2,102906568
1,327785728;-1,572990537;1,106121182;-0,533906996;1,995710395
1,329785528;-1,63523972;0,782903969;-0,622492433;1,916884033
1,331785328;-1,649604917;0,476446152;-0,615309834;1,823952716
1,333785061;-1,620874524;0,14844051;-0,524330199;1,710026598
1,335784794;-1,589749932;0,14844051;-0,469263524;1,664195808
1,337784527;-1,563413739;-0,04309563;-0,397437483;1,613715064
1,33978426;-1,522712231;-0,141257897;-0,33518824;1,565553412
1,341783993;-1,426944256;-0,289698392;-0,222660765;1,472980952
1,343783726;-1,326387763;-0,392649084;-0,064643443;1,384794778
1,345783526;-1,249773264;-0,524330199;0,117315881;1,360374355
1,347783726;-1,201889277;-0,579396784;0,217872351;1,351927079
1,349783459;-1,067813993;-0,63206923;0,452504128;1,320794541
1,351783192;-0,907402456;-0,646434486;0,694318473;1,312758509
1,353782925;-0,658405483;-0,672770679;0,995987892;1,370441552
1,355782658;-0,658405483;-0,672770679;0,995987892;1,370441552
1,357783158;-0,471657723;-0,672770679;1,182735682;1,440119817
1,359782891;-0,275333196;-0,682347476;1,343147159;1,531486447
1,361782691;-0,193930343;-0,663193882;1,419761658;1,578973802
1,363782424;0,01436521;-0,545877993;1,52510643;1,61991937
1,365782457;0,20590134;-0,397437483;1,589749932;1,651561916
1,36778219;0,301669419;-0,316034615;1,606509328;1,664858714
1,369781923;0,466869324;-0,119710088;1,632845521;1,702492868
1,371781656;0,567425787;0,04070143;1,673547029;1,767593927
1,373781389;0,644040287;0,268150598;1,647210717;1,788853203
1,375781122;0,644040287;0,268150598;1,647210717;1,788853203
1,377780922;0,653617084;0,284909993;1,63523972;1,783927672
1,379780655;0,644040287;0,320823014;1,604115129;1,758095743
1,381780388;0,629675031;0,316034615;1,568202138;1,719193552
1,383780121;0,617704034;0,320823014;1,491587639;1,646001022
1,385779854;0,562637389;0,366312861;1,419761658;1,570499637
1,387779587;0,531512797;0,416591108;1,386242747;1,541986692
1,38977932;0,509964943;0,438138902;1,383848548;1,53852746
1,391779053;0,44532153;0,48362875;1,383848548;1,532072073
1,393778853;0,280121595;0,687135875;1,405396342;1,589264829
1,395778586;0,280121595;0,687135875;1,405396342;1,589264829
1,397778319;0,232237563;0,739808321;1,422155857;1,619807988
1,399778052;0,160411507;0,814028561;1,429338455;1,652689556
1,401777785;0,088585466;0,881066203;1,434126854;1,685480606
1,403777518;0,055066638;0,926556051;1,441309452;1,714325344
1,405777251;0,055066638;1,012747288;1,479616642;1,793865884
1,407776584;-0,004788403;1,046266198;1,467645645;1,802409395
1,409776384;0,050278235;1,07739079;1,422155857;1,784888259
1,411776117;0,181959331;1,063025594;1,26413846;1,661679469
1,41377585;0,20350714;1,089361787;1,292868972;1,7028313
1,415775583;0,361524463;1,113303781;1,350329757;1,787046641
1,417774549;0,462080926;1,158793569;1,498770237;1,950034241
1,419774282;0,746990919;1,319205165;1,948880196;2,469095324
1,421774015;1,082179189;1,505952835;2,370259762;3,00950778
1,423773815;1,244984865;1,608903527;2,585737944;3,290075772
1,425773315;1,491587639;1,81959331;3,052607059;3,854109931
1,427773048;1,654393315;1,963245392;3,406949043;4,265987751
1,429772781;1,719036818;2,027888775;3,60327363;4,477834445
1,431772514;1,723825216;2,020706177;3,639186621;4,505386342
1,433772247;1,496376038;1,817199111;3,667917013;4,358321818
1,43577198;1,496376038;1,817199111;3,667917013;4,358321818
1,437771713;1,398213744;1,738190413;3,691859007;4,313482411
1,439771513;1,125274777;1,611297727;3,79241538;4,271409382
1,441771246;0,814028561;1,532289028;3,823540211;4,198810773
1,443770979;0,588973641;1,508347034;3,706224203;4,044514627
1,445770712;0,512359142;1,513135433;3,636792421;3,972197106
1,447770445;0,40940848;1,642422318;3,263296843;3,676176364
1,449770178;0,181959331;1,829170108;2,533065319;3,129759159
1,451769911;0,153228909;1,89620769;2,128445387;2,854708824
1,453769644;0,143652096;2,121262789;0,837970614;2,285297901
1,455769444;0,143652096;2,121262789;0,837970614;2,285297901
1,457769177;0,169988319;2,166752577;0,486022949;2,227090269
1,45976891;0,196324542;2,343923569;0,383072257;2,383120932
1,461768643;0,33518824;2,60010314;0,359130263;2,64610318
1,463768376;0,543483794;2,952050686;0,493205547;3,041912161
1,465768109;0,608127236;3,114856482;0,598550439;3,229614879
1,467767842;0,991199493;3,557783842;0,804451764;3,779873668
1,469767575;1,283292055;3,995922565;1,204283476;4,366295265
1,471767375;1,479616642;4,189853191;1,616086125;4,728199397
1,473767108;1,9321208;4,975450516;2,355894566;5,83424698
1,475766841;1,9321208;4,975450516;2,355894566;5,83424698
1,477766574;2,22900176;5,609913826;3,19625926;6,830494509
1,479766307;2,41574955;5,954679012;3,608062029;7,369678394
1,48176604;2,537853718;6,323386192;4,517858505;8,175387447
1,483765773;2,657563925;6,780678272;5,382464886;9,056001993
1,485765506;2,748543501;7,053617477;5,954679012;9,631521844
1,487765306;2,78924489;7,664138794;6,119878769;10,19665762
1,489765039;2,834734917;8,296208382;6,285078526;10,78726136
1,491764772;2,851494312;8,973767281;6,304232121;11,33149865
1,493764505;2,7533319;10,09664822;5,995380402;12,06100029
1,495764238;2,7533319;10,09664822;5,995380402;12,06100029
1,497763971;2,662352324;10,88912868;5,619490623;12,53953421
1,499763704;2,475604534;11,28896046;5,394435883;12,75418302
1,501763504;2,360682964;12,0934124;4,898836136;13,25979046
1,503763304;2,109291792;12,91462326;4,388571739;13,80203491
1,505763037;1,807622313;13,73104572;3,948038578;14,40125424
1,50776277;1,651999116;14,13566589;3,758896589;14,71989996
1,509762503;1,335964561;14,94041729;3,507505417;15,40465723
1,511762236;1,015141487;15,72092724;3,469198227;16,13113145
1,513761969;0,37349546;16,91323853;3,847482204;17,34935894
1,515761702;0,37349546;17,27955246;4,082113743;17,75911272
1,517761502;0,213083953;17,63150024;4,352658749;18,16207157
1,519761302;-0,074220255;18,29708862;4,927566528;18,9491391
1,521761035;-0,20350714;18,59157562;5,22684145;19,31341427
1,523760768;-0,428562105;19,15421295;5,770325184;20,00910273
1,525760501;-0,653617084;19,68333054;6,155791759;20,63381905
1,527760234;-0,751779318;19,92993355;6,26831913;20,90596202
1,529759967;-0,842759013;20,43989754;6,277895927;21,39886986
1,5317597;-0,89064306;20,9857769;6,028899193;21,85277334
1,5337595;-0,89064306;21,86205482;5,248389244;22,50085056
1,535759233;-0,881066203;21,86205482;5,248389244;22,50047352
1,537758966;-0,833182216;22,47736359;4,57531929;22,95342269
1,539758699;-0,723048925;23,11901093;3,854664803;23,44930504
1,541758432;-0,648828685;23,45659256;3,500322819;23,72519701
1,543758165;-0,509964943;24,13175774;2,868253708;24,30696762
1,545757898;-0,284909993;24,80961609;2,245761156;24,91268085
1,547757631;-0,016759412;25,48717499;1,604115129;25,5376106
1,549757431;0,117315881;25,83912277;1,261744261;25,87017641
1,551757164;0,383072257;26,54780579;0,560243189;26,5564796
1,553756897;0,926556051;27,91489601;-0,921767652;27,94547514
1,55575673;0,926556051;27,91489601;-0,921767652;27,94547514
1,557756463;1,034295082;28,26205444;-1,290474772;28,31040114
1,559756196;1,221042871;28,99707413;-2,00873518;29,09220292
1,561755929;1,355118155;29,81349754;-2,686294317;29,96493214
1,563755662;1,405396342;30,25163651;-3,035847664;30,43604805
1,565755462;1,453280449;31,22846985;-3,646369219;31,47420152
1,567755195;1,482010841;32,37768555;-4,139574528;32,67486733
1,569754928;1,48679924;33,02412033;-4,343081951;33,34164748
1,571754661;1,434126854;34,40826797;-4,604049683;34,74453768
1,573754394;1,175553083;37,64522934;-4,472368717;37,92818608
1,575754127;1,175553083;37,64522934;-4,472368717;37,92818608
1,57775386;1,074996591;38,476017;-4,321534157;38,73286924
1,579753593;0,794874966;40,07534409;-3,909731388;40,27345316
1,581753393;0,414196908;41,54059601;-3,430891037;41,68409396
1,583753159;0,169988319;42,21097183;-3,167528868;42,32999266
1,585752925;-0,258573771;43,62594604;-2,592920542;43,70369854
1,587752691;-1,26653266;43,04894257;-1,920149803;43,11035301
1,589752457;-2,671929121;41,43285751;-1,551442742;41,5478984
1,591752223;-3,34230566;40,59249115;-1,539471745;40,75894157
1,593751989;-5,145438671;38,27011871;-1,991975784;38,66581815
1,595751822;-5,145438671;38,27011871;-1,991975784;38,66581815
1,597751655;-5,463867664;37,76494217;-1,927332401;38,20679674
1,599751421;-6,136638165;36,80486679;-1,78128612;37,35544843
1,601751187;-6,704063892;35,9022522;-1,853112102;36,56979915
1,603750953;-7,103895664;35,00442505;-2,04464817;35,77646842
1,605750719;-7,245153427;34,57586288;-2,217030764;35,39629596
1,607750485;-7,474997044;33,7974472;-2,794033289;34,72678563
1,609750251;-7,515698433;32,94750595;-3,289633036;33,95357944
1,611750084;-7,48936224;32,48303223;-3,430891037;33,51132559
1,61374985;-6,972214699;30,89567566;-3,598485231;31,87638073
1,615749516;-6,972214699;30,89567566;-3,598485231;31,87638073
1,617749282;-6,462249756;30,29952049;-3,368641853;31,16359032
1,619749048;-6,196493149;30,06728363;-3,201047659;30,86559214
1,621748814;-5,624279022;29,770401;-2,817975283;30,42778788
1,62374858;-4,985027313;29,59801865;-2,398990154;30,1106021
1,625748346;-4,65193367;29,59083748;-2,214636564;30,03602445
1,627748179;-3,971980572;29,66745186;-1,989581585;29,99821269
1,629747945;-3,220201254;29,85659218;-1,877054095;30,0883553
1,631747711;-2,487575531;30,14629173;-1,757344007;30,2997557
1,633747477;-1,403002143;30,72089958;-1,663970232;30,79790387
1,635747243;-1,403002143;30,72089958;-1,663970232;30,79790387
1,637747009;-0,711077929;31,1350975;-1,510741234;31,17983751
1,639746775;-0,378283858;31,35775757;-1,388636947;31,39076888
1,641746541;0,237025961;31,76237679;-1,065419793;31,78112458
1,643746341;0,823605359;32,06883621;-0,603338838;32,08508375
1,645746074;1,283292055;32,20530319;-0,076614454;32,23095192
1,647745807;1,455674648;32,23163986;0,18674773;32,26503481
1,64974554;1,683123827;32,16460419;0,761356115;32,21760903
1,651745273;1,774103403;31,95151901;1,312022567;32,02761954
1,653745006;1,675941229;31,39127541;2,099714994;31,50602726
1,655744739;1,675941229;31,39127541;2,099714994;31,50602726
1,657744472;1,505952835;30,90285873;2,559401512;31,04521071
1,659744272;1,33835876;30,31149101;2,964021683;30,48545745
1,661744005;1,256955862;29,96433258;3,169923067;30,1577449
1,663743738;1,027112484;29,17903328;3,584120035;29,41626862
1,665743471;0,766144514;28,29796791;3,983951569;28,587302
1,667743204;0,646434486;27,85743523;4,165910721;28,1746231
1,669742937;0,457292527;26,91172409;4,489128113;27,28740151
1,67174267;0,268150598;25,84869957;4,750096321;26,28289537
1,67374247;0,08379706;24,10781479;4,975450516;24,61602859
1,67574227;0,08379706;24,10781479;4,975450516;24,61602859
1,677742003;0,016759412;23,02324295;5,049670696;23,57051486
1,679741736;0,050278235;22,02246666;5,107131481;22,60695375
1,681741469;0,086191259;21,54123116;5,116708279;22,14074913
1,683741202;0,193930343;20,59791565;5,07361269;21,21445931
1,685740935;0,323217243;19,66178322;4,932354927;20,27358661
1,687740668;0,495599747;18,69931412;4,797980309;19,31141068
1,689740468;0,598550439;18,24202156;4,740519524;18,85741601
1,691740201;0,828393817;17,39926147;4,594472885;18,01470836
1,693739934;1,355118155;15,80711842;4,42448473;16,47050099
1,695739634;1,355118155;15,80711842;4,42448473;16,47050099
1,697739367;1,493981838;15,41446877;4,412513733;16,1030465
1,6997391;1,762132406;14,64084244;4,431667328;15,39802108
1,701738833;2,018311977;13,89624596;4,46279192;14,73416936
1,703738566;2,130839586;13,51796246;4,49870491;14,40535082
1,705738366;2,394201756;12,75421143;4,563348293;13,75595358
1,707738099;2,554613113;11,98567295;4,599261284;13,08952286
1,709737832;2,657563925;11,60020638;4,61362648;12,76373704
1,711737565;2,82036972;10,78617764;4,546588898;12,0402485
1,713737298;2,920926094;9,517251015;4,343081951;10,86150252
1,715737031;2,920926094;9,043199539;4,343081951;10,44861847
1,717736764;2,928108692;8,6074543;4,304774761;10,05948188
1,719736497;3,210624456;7,850886822;3,97676897;9,367989364
1,721736297;3,308786631;6,981791496;3,591302633;8,520031459
1,72373603;3,280056238;6,553229332;3,49553442;8,119257631
1,725735763;3,263296843;5,732017994;3,318363667;7,383540749
1,727735496;3,045424461;4,821922302;3,167528868;6,523709372
1,729735229;3,066972494;4,110844135;2,868253708;5,876413797
1,731734962;3,074155092;3,749319792;2,645592928;5,523313351
1,733734695;2,729389906;2,219424963;2,149993181;4,122849391
1,735734428;2,729389906;2,219424963;2,149993181;4,122849391
1,737734228;2,688688517;1,89860189;2,070984364;3,88879304
1,739733961;2,45405674;1,146822572;1,89620769;3,306538991
1,741733694;2,164358377;0,447715729;1,731007814;2,807362573
1,743733427;1,810016513;-0,124498487;1,704671621;2,489490909
1,74573316;1,604115129;-0,387860686;1,716642618;2,381277627
1,747732893;1,197100878;-0,778115571;1,81959331;2,312884383
1,749732626;0,871489406;-1,26653266;2,023100376;2,540971053
1,751732426;0,735019922;-1,470039845;2,121262789;2,683472983
1,753732226;0,105344877;-1,999158382;2,401384354;3,126400261
1,755731959;0,105344877;-1,999158382;2,401384354;3,126400261
1,757731692;-0,33518824;-2,317587137;2,559401512;3,469019659
1,759731425;-0,531512797;-2,521094322;2,640804529;3,689481128
1,761731158;-0,833182216;-2,887407303;2,741360903;4,067723336
1,763730891;-1,04147768;-3,251325846;2,810792685;4,422256328
1,765730624;-1,130063176;-3,430891037;2,82036972;4,582852981
1,767730424;-1,290474772;-3,835511208;2,837129116;4,94224372
1,769730224;-1,446097851;-4,23294878;2,889801502;5,325411448
1,771729957;-1,59693253;-4,584896088;2,932897091;5,672155762
1,77372969;-1,78368032;-5,052064896;3,062183857;6,171048952
1,775729423;-1,78368032;-5,052064896;3,062183857;6,171048952
1,777729156;-1,948880196;-5,346551895;3,138798475;6,498908143
1,779728889;-2,015917778;-5,473444462;3,165134668;6,636308931
1,781728622;-2,11647439;-5,7104702;3,220201254;6,889022417
1,783728422;-2,209848166;-5,911583424;3,294421434;7,119231705
1,785728155;-2,288856745;-6,091148376;3,335123062;7,311908067
1,787727888;-2,319981337;-6,170156956;3,356670856;7,397323131
1,789727621;-2,334346771;-6,383241177;3,392583847;7,596352278
1,791727354;-2,30561614;-6,201281548;3,469198227;7,470414644
1,793727087;-1,958456993;-4,980238914;3,555389643;6,424883575
1,79572682;-1,958456993;-4,980238914;3,555389643;6,424883575
1,797726553;-1,601720929;-4,153939724;3,521870613;5,676644941
1,799726353;-1,230619669;-3,265691042;3,428496838;4,89221354
1,801726086;-1,067813993;-2,798821688;3,394978046;4,52763796
1,803725819;-0,754173517;-1,838746905;3,351882458;3,896778655
1,805725552;-0,397437483;-0,986411095;3,308786631;3,475490234
1,807725285;-0,229843363;-0,600944638;3,248931646;3,31202646
1,809725018;0,1316811;0,067037649;3,052607059;3,056181248
1,811724751;0,440533102;0,615309834;2,726995707;2,83004968
1,813724484;0,9672575;1,484405041;1,757344007;2,495456543
1,815724317;0,9672575;1,484405041;1,757344007;2,495456543
1,81772405;1,039083481;1,63523972;1,465251446;2,42912849
1,819723783;1,247379065;1,934514999;0,873883605;2,462107912
1,821723516;1,295263171;2,078166962;0,579396784;2,516383364
1,823723249;1,323993564;2,346317768;0,004788403;2,694102625
1,825722982;1,233013868;2,592920542;-0,536301196;2,920818226
1,827722715;1,084573388;2,698265314;-1,060631394;3,095460239
1,829722448;0,960074902;2,875436306;-1,290474772;3,294723494
1,831722248;0,67037648;2,997540474;-1,740584612;3,530479898
1,833721981;0,225054964;3,05021286;-2,425326347;3,903415955
1,835721714;0,033518825;3,031059265;-2,652775526;4,028108957
1,837721447;-0,158017308;2,985569477;-2,870647907;4,144781536
1,83972118;-0,521935999;2,853888512;-3,275267839;4,37544012
1,841720913;-0,921767652;2,755726099;-3,617638826;4,640150064
1,843720646;-1,134851575;2,521094322;-3,780444384;4,683541867
1,845720446;-1,455674648;2,26730895;-4,144362926;4,943219864
1,847720246;-1,833958507;1,920149803;-4,407725334;5,145718773
1,849719979;-1,975216389;1,752555609;-4,486733913;5,206122564
1,851719712;-2,214636564;1,414973259;-4,65193367;5,342962783
1,853719445;-2,372653961;0,869095206;-4,92277813;5,533403818
1,855719178;-2,418143749;0,689530075;-4,980238914;5,579036705
1,857718911;-2,444479942;0,502782345;-4,992209911;5,581257213
1,859718644;-2,45166254;0,150834709;-4,968267918;5,542299741
1,861718444;-2,41335535;-0,20350714;-4,927566528;5,490592964
1,863718177;-2,353500366;-0,354341865;-4,891354084;5,439656874
1,86571791;-2,293645144;-0,703895271;-4,750096321;5,321624908
1,867717643;-2,123656988;-1,079784989;-4,570530891;5,154183471
1,869717376;-1,972822189;-1,254561663;-4,343081951;4,932373991
1,871717109;-1,886630893;-1,563413739;-4,209006786;4,870254282
1,873716842;-1,601720929;-2,109291792;-3,627215624;4,491248711
1,875716575;-1,601720929;-2,109291792;-3,627215624;4,491248711
1,877716375;-1,532289028;-2,236184359;-3,478775024;4,410250086
1,879716108;-1,218648672;-2,480392933;-3,210624456;4,236220378
1,881715841;-0,909796655;-2,695871115;-2,880224705;4,048597951
1,883715574;-0,612915635;-2,774879694;-2,710236311;3,926958588
1,885715307;-0,48362875;-2,906560898;-2,346317768;3,766589982
1,88771504;-0,208295554;-3,033453465;-1,999158382;3,638936822
1,889714773;0,04070143;-3,114856482;-1,697489023;3,547598694
1,891714506;0,153228909;-3,150769472;-1,544260144;3,512202551
1,893714306;0,617704034;-3,227383852;-0,976834297;3,428085478
1,895714039;0,617704034;-3,227383852;-0,976834297;3,428085478
1,897713772;0,806845963;-3,236960649;-0,85473001;3,44375929
1,899713505;0,940921247;-3,248931646;-0,644040287;3,443207447
1,901713238;1,161187768;-3,256114244;-0,416591108;3,481980063
1,903712971;1,335964561;-3,251325846;-0,217872351;3,521844605
1,905712704;1,414973259;-3,229778051;-0,114921682;3,528005467
1,907712437;1,584961534;-3,169923067;0,086191259;3,545129652
1,909712237;1,707065821;-3,126827478;0,287304193;3,57402679
1,91171197;1,802833915;-3,093308687;0,37110126;3,599511759
1,913711703;1,889025092;-3,01429987;0,687135875;3,62306158
1,915711436;1,889025092;-3,01429987;0,687135875;3,62306158
1,917711169;1,948880196;-2,928108692;0,849941611;3,618612341
1,919710902;1,960851192;-2,885013103;0,907402456;3,604388606
1,921710635;1,922544003;-2,774879694;1,031900883;3,530007392
1,923710435;1,831564307;-2,652775526;1,15161097;3,423164272
1,925710235;1,742978811;-2,585737944;1,211466074;3,34539473
1,927709968;1,692700624;-2,427720547;1,393425345;3,271191931
1,929709701;1,613691926;-2,260126352;1,55862534;3,184569942
1,931709434;1,529894829;-2,066195965;1,67115283;3,066348926
1,933709167;1,386242747;-1,786074519;1,754949808;2,862093634
1,9357089;1,312022567;-1,683123827;1,790862918;2,785946701
1,937708633;1,240196466;-1,568202138;1,831564307;2,7114522
1,939708433;1,173158884;-1,465251446;1,862688899;2,644404186
1,941708166;1,00317049;-1,268926859;1,912967205;2,505188602
1,943707899;0,802057564;-1,098938584;1,960851192;2,386608419
1,945707632;0,574608386;-0,936132848;2,027888775;2,306263729
1,947707365;0,462080926;-0,85473001;2,037465572;2,257287782
1,949707098;0,220266551;-0,715866327;2,056619167;2,188758633
1,951706831;-0,007182605;-0,605733037;2,080561161;2,166956125
1,953706564;-0,33279404;-0,450109929;2,099714994;2,173051743
1,955706364;-0,33279404;-0,450109929;2,099714994;2,173051743
1,957706097;-0,517147541;-0,390254885;2,078166962;2,176813813
1,95970583;-0,696712673;-0,33518824;2,037465572;2,179225932
1,961705563;-0,78050977;-0,325611442;2,015917778;2,186125065
1,963705296;-0,902614057;-0,287304193;1,980004787;2,194920225
1,965705029;-1,010353088;-0,265756398;1,910573006;2,177551156
1,967704762;-1,060631394;-0,248996973;1,879448295;2,172386784
1,969704495;-1,132457376;-0,208295554;1,805228114;2,141190157
1,971704295;-1,194706678;-0,193930343;1,673547029;2,065355341
1,973704028;-1,223437071;-0,191536129;1,474828243;1,925773274
1,975703761;-1,223437071;-0,191536129;1,474828243;1,925773274
1,977703494;-1,18991828;-0,193930343;1,335964561;1,799532105
1,979703227;-1,132457376;-0,198718742;1,18991828;1,654646294
1,98170296;-1,106121182;-0,20590134;1,096544385;1,5710853
1,983702693;-1,019929886;-0,220266551;0,945709646;1,408240413
1,985702426;-0,914585054;-0,244208574;0,802057564;1,240725588
1,987702226;-0,782903969;-0,280121595;0,651222885;1,056171377
1,989701992;-0,711077929;-0,294486821;0,584185243;0,966243606
1,991701758;-0,581790984;-0,330399841;0,442927301;0,802389804
1,993701524;-0,282515794;-0,40940848;0,308852017;0,585508365
1,99570129;-0,282515794;-0,40940848;0,308852017;0,585508365
1,997701056;-0,217872351;-0,438138902;0,316034615;0,582504882
1,999700822;-0,095768064;-0,459686726;0,351947635;0,586813894
2,001700655;0,01436521;-0,502782345;0,378283858;0,629360885
2,003700488;0,08379706;-0,517147541;0,390254885;0,653270543
2,005700254;0,244208574;-0,526724398;0,411802679;0,711799035
2,00770002;0,385466486;-0,526724398;0,433350503;0,783463887
2,009699786;0,452504128;-0,524330199;0,478840351;0,842003697
2,011699552;0,569819987;-0,507570744;0,55784899;0,945261008
2,013699318;0,794874966;-0,457292527;0,703895271;1,156032534
2,015699084;0,794874966;-0,457292527;0,703895271;1,156032534
2,017698917;0,871489406;-0,44532153;0,735019922;1,223952342
2,01969875;0,995987892;-0,418985307;0,790086567;1,338572879
2,021698516;1,082179189;-0,383072257;0,849941611;1,428375613
2,023698282;1,137245774;-0,363918662;0,864306808;1,474039009
2,025698048;1,240196466;-0,354341865;0,888248801;1,566087917
2,027697814;1,335964561;-0,318428814;0,885854602;1,634300031
2,02969758;1,426944256;-0,292092621;0,842759013;1,682774721
2,031697346;1,477222443;-0,272938997;0,81642276;1,709745
2,033697179;1,623268723;-0,253785372;0,825999558;1,838935462
2,035696945;1,623268723;-0,253785372;0,825999558;1,838935462
2,037696711;1,628057122;-0,239420176;0,926556051;1,888490966
2,039696477;1,589749932;-0,177170932;1,357512355;2,09798336
2,041696243;1,537077546;-0,098162271;1,795651317;2,365714874
2,043696009;1,465251446;0,021547815;1,972822189;2,457529959
2,045695775;1,422155857;0,090979666;2,039859772;2,4883393
2,047695541;1,388636947;0,292092621;2,118868589;2,550144068
2,049695341;1,371877551;0,51954174;2,018311977;2,495106185
2,051695074;1,405396342;0,653617084;2,006340981;2,535302408
2,053694807;1,505952835;1,45088625;2,051830769;2,929671373
2,05569454;1,505952835;1,45088625;2,051830769;2,929671373
2,057694273;1,438915253;1,924938202;2,197877169;3,25676653
2,059694006;1,429338455;2,166752577;2,315192938;3,478209811
2,061693739;1,398213744;2,643198729;2,657563925;4,000518367
2,063693472;1,319205165;3,071760893;3,270479441;4,676756678
2,065693272;1,249773264;3,258508444;3,648763418;5,049087539
2,067693005;1,125274777;3,622427225;4,419696331;5,824254286
2,069692738;0,9672575;3,928884983;5,281908035;6,653591269
2,071692471;0,763750315;4,220977783;6,155791759;7,502915445
2,073692204;0,553060591;4,819528103;7,249941826;8,723266798
2,075691937;0,553060591;4,819528103;7,249941826;8,723266798
2,07769167;0,452504128;5,267542839;7,733570576;9,368024413
2,079691403;0,399831682;5,538087845;7,898770809;9,655095165
2,081691203;0,282515794;6,095936775;8,063970566;10,11275836
2,083690936;0,045489833;6,443096161;7,994538784;10,26782391
2,085690669;-0,169988319;6,900388718;7,731176376;10,36413762
2,087690402;-0,277727395;7,182904243;7,575553417;10,44319182
2,089690135;-0,517147541;7,762300968;7,276278019;10,65199417
2,091689868;-0,761356115;8,439860344;6,909965515;10,93428229
2,093689601;-1,209071875;9,443030357;6,287472725;11,40898726
2,095689401;-1,383848548;9,775824547;6,057629585;11,58346488
2,097689201;-1,56101954;10,12537861;5,808632374;11,77710847
2,099688934;-1,963245392;10,72632313;5,169380665;12,06776022
2,101688667;-2,205059767;10,9298296;4,800374508;12,13948347
2,1036884;-2,71502471;11,57626438;4,005499363;12,54692318
2,105688133;-3,150769472;12,4860611;3,177105665;13,26359945
2,107687866;-3,399766445;12,95053673;2,815581083;13,68218953
2,109687599;-3,835511208;13,55866337;2,130839586;14,25092895
2,111687399;-4,230554581;14,20988655;1,570596337;14,9092334
2,113687132;-4,630385876;16,26680565;1,290474772;16,96215684
2,115686865;-4,630385876;16,26680565;1,290474772;16,96215684
2,117687698;-4,606443882;16,85338402;1,302445769;17,5200526
2,119687431;-4,474762917;18,0887928;1,254561663;18,67623766
2,121687164;-4,338293552;18,7663517;1,197100878;19,29844029
2,123686897;-3,881000996;20,17653656;0,792480767;20,56168335
2,12568663;-3,303998232;21,50771332;-0,385466486;21,76342622
2,12768643;-2,85867691;22,86761856;-1,544260144;23,09728884
2,129686163;-2,691082716;23,6074276;-1,939303398;23,83932595
2,131685896;-2,214636564;25,2429657;-2,346317768;25,44832292
2,133685629;-1,216254473;28,30754471;-2,387019157;28,43403283
2,135685362;-0,89303726;29,55013466;-2,401384354;29,66099494
2,137685095;-0,59615624;30,94116592;-2,446874142;31,04349117
2,139684828;-0,10295067;34,0919342;-2,7509377;34,20289805
2,141684561;0,328005642;37,77691269;-3,210624456;37,91452003
2,143684361;0,524330199;39,653965;-3,473986626;39,80930099
2,145684094;0,687135875;41,2652626;-4,019864559;41,46629191
2,147683827;1,022324085;42,20858002;-4,225766182;42,43190396
2,14968356;1,297657371;42,74488068;-4,180276394;42,96840059
2,151683293;1,659181833;43,62594604;-3,823540211;43,8245994
2,153683026;1,831564307;44,60308075;-2,573766708;44,71480421
2,155682759;1,831564307;44,70842361;-1,958456993;44,78876336
2,157682492;1,78128612;44,7467308;-1,256955862;44,79980844
2,159682292;1,553836942;44,64138794;0,270544797;44,66924133
2,161682025;1,180341482;44,29183197;1,908178806;44,34862717
2,163681758;0,950498104;44,05211258;2,705447912;44,14534537
2,165681491;0,418985307;43,64749527;4,27125597;43,85798695
2,167681224;-0,136469498;43,20696259;5,904400826;43,60873982
2,169680957;-0,799663365;42,30913544;7,606678009;42,99492939
2,17168069;-1,156399369;41,65551758;8,406341553;42,51101013
2,17368049;-2,726995707;38,09055328;10,56830597;39,62342547
2,17568029;-2,726995707;38,09055328;10,56830597;39,62342547
2,177678923;-3,138798475;37,10892868;10,90109921;38,80410555
2,179678656;-3,895366192;35,26060486;11,42064095;37,26815225
2,181678389;-4,455609322;33,67295074;11,5044384;35,86184838
2,183678122;-4,802768707;32,40881348;10,90349388;34,52946506
2,185677855;-4,932354927;31,91560555;10,35282707;33,91334591
2,187677588;-5,099948883;31,17579842;8,822932243;32,79914662
2,189677388;-5,152621269;30,72568893;6,862081528;31,90149886
2,191677121;-5,116708279;30,57724762;5,772719383;31,535267
2,193676854;-4,601655483;30,39289474;1,280897856;30,76595494
2,195676587;-4,601655483;30,39289474;1,280897856;30,76595494
2,197676553;-4,113238335;30,46232605;-0,617704034;30,74497676
2,199676286;-3,813963413;30,53175735;-1,391031146;30,80047876
2,201676019;-3,179499865;30,7424469;-2,494758129;31,00695211
2,203675752;-2,583343744;31,00580978;-2,875436306;31,24583235
2,205675552;-2,310404539;31,12312508;-2,796427488;31,33379789
2,207675285;-1,889025092;31,31466103;-2,161964178;31,44599339
2,209675018;-1,711854219;31,36254501;-0,998382092;31,42509254
2,211674751;-1,675941229;31,2236824;0,48123455;31,27233136
2,213674484;-1,82198751;30,84779167;2,856282711;31,03327634
2,215674217;-1,82198751;30,84779167;2,856282711;31,03327634
2,21767305;-1,982398987;30,52218056;4,30956316;30,88860221
2,219672783;-2,063801765;30,35219193;4,968267918;30,82529024
2,221672583;-2,190694571;30,00263977;6,119878769;30,6987044
2,223672316;-2,319981337;29,66505623;6,955455303;30,55775242
2,225672049;-2,327163935;29,30113792;7,441478252;30,32075154
2,227671782;-2,310404539;29,13114929;7,611466408;30,19761992
2,229671515;-2,226607561;28,76962471;7,817368031;29,89582463
2,231671248;-2,061407566;28,34345818;7,518092632;29,39596468
2,233670981;-1,731007814;27,66589928;7,058405876;28,60453573
2,235670714;-1,606509328;27,39056587;6,864475727;28,28329892
2,237670514;-1,465251446;27,09607887;6,562806129;27,91800273
2,23967028;-1,209071875;26,7944088;5,947496414;27,47316711
2,241670046;-1,108515382;26,14318657;5,779901981;26,79743042
2,243669812;-0,907402456;25,38901329;5,444714069;25,98211474
2,245669578;-0,701501071;24,5462532;4,898836136;25,04015267
2,247669344;-0,612915635;24,11499786;4,759673119;24,58786847
2,24966911;-0,486022949;23,18844223;4,881777287;23,70172612
2,251668943;-0,40940848;22,15175247;4,932354927;22,69792673
2,253668776;-0,246602774;20,6817131;5,11191988;21,30553437
2,255668642;-0,246602774;20,6817131;5,11191988;21,30553437
2,257668275;-0,189141929;19,66657066;5,483021259;20,41747532
2,259668141;-0,098162271;18,69213104;5,559635639;19,50166524
2,261668007;-0,052672438;18,23483849;5,645826817;19,08893579
2,263667873;0,026336219;17,36813736;6,031293392;18,38557557
2,265667739;0,067037649;16,5469265;6,098330975;17,63504781
2,267667672;0,088585466;16,15667152;5,997774601;17,23424447
2,269667605;0,069431849;15,46953583;6,052841187;16,61169004
2,271667538;0,023942016;14,77042866;6,050446987;15,96164292
2,273667471;0,093373865;13,50359726;5,437531471;14,55756182
2,275667404;0,093373865;13,50359726;5,437531471;14,55756182
2,277668237;0,14844051;13,19953346;5,396830082;14,26097799
2,27966817;0,356736064;12,61774254;5,032911301;13,5891458
2,281668103;0,574608386;12,32564926;4,692635536;13,20123603
2,283668103;0,660799682;11,8037138;4,695029736;12,72036241
2,285668069;0,857124209;11,28896046;4,659116745;12,24265735
2,287668035;1,096544385;10,74308205;4,237737179;11,60063092
2,289668001;1,218648672;10,46774864;4,082113743;11,30143879
2,291667967;1,431732655;9,905111313;3,981557369;10,77097431
2,293667933;1,824381709;8,76068306;3,392583847;9,570139051
2,295667899;1,824381709;8,76068306;3,392583847;9,570139051
2,297667865;1,915361404;8,497321129;3,390189648;9,34700281
2,299667865;2,066195965;7,989750385;3,284844637;8,882312834
2,301667831;2,224213362;7,379229069;2,834734917;8,211934533
2,303667797;2,291250944;7,072771072;2,691082716;7,906696384
2,305667763;2,360682964;6,44549036;2,729389906;7,386930303
2,307667729;2,391807556;5,870882034;2,466027737;6,802153486
2,309667695;2,391807556;5,600337029;2,183511972;6,469330935
2,311667661;2,336740971;4,910807133;2,226607561;5,87657777
2,313667627;2,181117773;3,684676409;1,869871497;4,672315742
2,31566756;2,181117773;3,684676409;1,869871497;4,672315742
2,317667293;2,102109194;3,402160645;1,829170108;4,397661128
2,319667226;1,8602947;2,86107111;2,085349798;3,999388459
2,321667159;1,640028119;2,255337954;2,018311977;3,442357441
2,323667092;1,381454349;1,999158382;1,97042799;3,128519909
2,325667025;1,201889277;1,527500629;2,123656988;2,878839177
2,327666958;0,902614057;0,852335811;2,188300371;2,515918716
2,329666891;0,67037648;0,270544797;2,111685991;2,231998396
2,331666824;0,545877993;0,009576807;2,073378563;2,144055308
2,33366669;0,047884032;-0,888248801;1,948880196;2,142291491
2,335666556;0,047884032;-0,888248801;1,948880196;2,142291491
2,337666422;-0,150834709;-1,106121182;1,948880196;2,245971771
2,339666288;-0,251391172;-1,520318031;1,865083098;2,419317962
2,341666154;-0,48362875;-1,980004787;1,690306425;2,647914564
2,34366602;-0,718260527;-2,494758129;1,52510643;3,010924431
2,34566592;-0,852335811;-2,746149302;1,45088625;3,220696078
2,34766582;-1,103726983;-3,124433279;1,233013868;3,535621553
2,349665653;-1,333570361;-3,493140221;1,027112484;3,877550588
2,351665486;-1,656787634;-3,744531393;0,943315446;4,201940581
2,353665319;-2,334346771;-4,544194698;0,476446152;5,13087529
2,355665152;-2,334346771;-4,544194698;0,476446152;5,13087529
2,357664552;-2,719813108;-4,709394932;0,397437483;5,45286535
2,359664385;-2,923320293;-4,740519524;0,407014281;5,584262486
2,361664251;-3,378218651;-4,934749126;0,320823014;5,98890955
2,363664051;-3,734954596;-5,241206646;0,174776718;6,438220238
2,365663851;-3,983951569;-5,415983677;0,119710088;6,72451335
2,367663651;-4,082113743;-5,743988991;0,031124622;7,046845456
2,369663451;-4,218583584;-5,971438408;-0,126892686;7,312361169
2,371663251;-4,319139957;-6,19170475;-0,20590134;7,552123744
2,373663051;-4,359841347;-6,488585949;-0,320823014;7,823866793
2,375662851;-4,359841347;-6,488585949;-0,320823014;7,823866793
2,377662851;-4,367023945;-6,704063892;-0,275333196;8,00569667
2,379662584;-4,376600742;-6,785466671;-0,275333196;8,079170772
2,381662317;-4,402936935;-6,866869926;-0,263362199;8,161440798
2,38366205;-4,333505154;-7,020098686;-0,10295067;8,250554607
2,385661783;-4,182670593;-7,103895664;0,067037649;8,244062163
2,387661516;-4,108449936;-7,123049259;0,177170932;8,224875754
2,389661249;-3,950432777;-7,199663639;0,450109929;8,224577472
2,391660982;-3,727771997;-7,240365028;0,804451764;8,183294718
2,393660782;-3,277662039;-7,264307022;1,237802267;8,065071568
2,395660515;-3,277662039;-7,264307022;1,237802267;8,065071568
2,397660248;-2,904166698;-7,223605633;1,443703651;7,9182664
2,399659981;-2,49236393;-7,135020256;1,642422318;7,734206041
2,401659714;-2,279279947;-7,096713066;1,740584612;7,654285611
2,403659447;-1,798045516;-6,974608898;1,920149803;7,454200978
2,40565918;-1,276109457;-6,826168537;2,035071373;7,236473432
2,407658913;-0,974440098;-6,766313076;2,04704237;7,13602891
2,409658713;-0,112527482;-6,251559734;1,996764183;6,563667325
2,411658446;0,701501071;-5,016151905;1,872265697;5,399931715
2,413658179;1,625662923;-2,446874142;2,226607561;3,686157109
2,415657912;1,625662923;-2,446874142;2,226607561;3,686157109
2,417658078;1,685518026;-1,910573006;2,418143749;3,512645644
2,419657811;1,750161409;-0,9648633;2,726995707;3,380906939
2,421657544;1,790862918;-0,577002585;2,815581083;3,38638728
2,423657344;1,881842494;0,059855044;2,829946518;3,399045615
2,425657144;2,042253971;0,577002585;2,537853718;3,30823741
2,427656877;2,159569979;0,883460402;2,04464817;3,102391161
2,42965661;2,214636564;0,962469101;1,752555609;2,983691178
2,431656343;2,346317768;1,058237195;1,213860273;2,845791593
2,433656076;2,585737944;1,170764685;0,538695395;2,889104254
2,435655809;2,669534922;1,261744261;0,320823014;2,970074525
2,437655542;2,741360903;1,37666595;0,10295067;3,069343183
2,439655342;2,873042107;1,673547029;-0,287304193;3,337315434
2,441655075;2,966415882;2,042253971;-0,548272192;3,642942062
2,443654808;3,007117271;2,217030764;-0,641646028;3,790737305
2,445654541;3,028665066;2,45405674;-0,792480767;3,977842673
2,447654274;3,052607059;2,643198729;-0,924161851;4,142340462
2,449654007;3,062183857;2,681505919;-0,974440098;4,185328836
2,45165374;3,05021286;2,667140722;-1,122880578;4,204556923
2,453653473;2,999934673;2,578555346;-1,328781962;4,173034533
2,455653373;2,999934673;2,578555346;-1,328781962;4,173034533
2,457653106;2,966415882;2,513911724;-1,350329757;4,116159107
2,459652839;2,887407303;2,37744236;-1,37427175;3,984717801
2,461652572;2,782062292;2,185906172;-1,379060149;3,797349508
2,463652305;2,738966703;2,078166962;-1,367089152;3,699952604
2,465652038;2,628833532;1,874659896;-1,323993564;3,489709791
2,467651771;2,430114746;1,608903527;-1,254561663;3,173003814
2,469651504;2,214636564;1,369483352;-1,182735682;2,859888714
2,471651304;2,085349798;1,237802267;-1,149216771;2,683568039
2,473651037;1,553836942;0,679953277;-1,084573388;2,013217607
2,47565077;1,553836942;0,679953277;-1,084573388;2,013217607
2,477650503;1,429338455;0,560243189;-1,096544385;1,886608184
2,479650236;1,163581967;0,316034615;-1,043871999;1,594825891
2,481649969;0,912190855;0,069431849;-0,991199493;1,348847424
2,483649702;0,663193882;-0,114921682;-0,981622696;1,190216885
2,485649435;0,533906996;-0,198718742;-0,976834297;1,130818758
2,487649235;0,272938997;-0,349553436;-0,948103845;1,046701582
2,489648968;0,04309563;-0,500388145;-0,883460402;1,016242005
2,491648701;-0,069431849;-0,569819987;-0,847547412;1,023646528
2,493648434;-0,387860686;-0,701501071;-0,663193882;1,040368103
2,495648167;-0,387860686;-0,701501071;-0,663193882;1,040368103
2,4976479;-0,517147541;-0,694318473;-0,55784899;1,029910296
2,499647633;-0,565031588;-0,699106872;-0,507570744;1,032298006
2,501647433;-0,639251828;-0,713472128;-0,359130263;1,023063988
2,503647233;-0,732625723;-0,66798228;-0,18674773;1,008868421
2,505646966;-0,761356115;-0,63206923;-0,093373865;0,993928229
2,507646699;-0,778115571;-0,538695395;0,10295067;0,95197448
2,509646432;-0,797269166;-0,399831682;0,306457818;0,943090606
2,511646165;-0,81881696;-0,248996973;0,541089594;1,012540693
2,513645898;-0,89064306;-0,047884032;0,905008256;1,270660413
2,515645531;-0,89064306;-0,047884032;0,905008256;1,270660413
2,517645331;-0,945709646;0,090979666;1,15400517;1,494781578
2,519645131;-0,974440098;0,18435353;1,244984865;1,59169942
2,521644864;-0,984016895;0,385466486;1,419761658;1,769914356
2,523644597;-0,957680702;0,586579442;1,59693253;1,952286166
2,52564433;-0,962469101;0,778115571;1,771709204;2,161195066
2,527644063;-0,945709646;0,873883605;1,848323703;2,25262953
2,529643796;-0,933738649;1,00317049;2,006340981;2,429737234
2,531643529;-0,881066203;1,106121182;2,11647439;2,545436224
2,533643329;-0,857124209;1,240196466;2,250549555;2,708823081
2,535643062;-0,847547412;1,290474772;2,288856745;2,760892419
2,537642795;-0,837970614;1,321599364;2,317587137;2,796431613
2,539642528;-0,811634362;1,398213744;2,351106167;2,853323013
2,541642261;-0,797269166;1,44849205;2,360682964;2,882115785
2,543641994;-0,758961916;1,556231141;2,327163935;2,900615544
2,545641727;-0,711077929;1,628057122;2,276885748;2,887976891
2,547641893;-0,684741676;1,675941229;2,248155355;2,886494876
2,549641693;-0,634463429;1,793257117;2,164358377;2,881451391
2,551641426;-0,55784899;1,881842494;2,08295536;2,862032442
2,553641159;-0,48123455;2,039859772;1,968033791;2,875025492
2,555640892;-0,48123455;2,039859772;1,968033791;2,875025492
2,557640625;-0,397437483;2,111685991;1,893813491;2,864210854
2,559640358;-0,282515794;2,178723574;1,798045516;2,838946858
2,561640091;-0,234631762;2,197877169;1,738190413;2,811942749
2,563639824;-0,146046311;2,195482969;1,604115129;2,722987392
2,565639624;-0,110133275;2,11647439;1,517923832;2,606853648
2,567639357;-0,047884032;1,987187386;1,429338455;2,448308601
2,56963909;-0,019153614;1,912967205;1,362300754;2,348547153
2,571638823;0,023942016;1,733402014;1,237802267;2,130119765
2,573638556;0,074220255;1,482010841;1,18991828;1,902043715
2,575638289;0,086191259;1,386242747;1,199495077;1,835180189
2,577638022;0,095768064;1,292868972;1,218648672;1,779265659
2,579637755;0,114921682;1,120486379;1,26653266;1,694934127
2,581637555;0,138863698;0,924161851;1,314416766;1,612777012
2,583637288;0,150834709;0,833182216;1,345541358;1,589787804
2,585637021;0,196324542;0,636857629;1,395819545;1,546752458
2,587636754;0,246602774;0,48362875;1,462857246;1,560340033
2,589636487;0,268150598;0,423773706;1,482010841;1,564559053
2,59163622;0,33279404;0,263362199;1,582567334;1,638484327
2,593635953;0,648828685;0,079008654;1,575384736;1,705596112
2,595635753;0,648828685;0,079008654;1,575384736;1,705596112
2,597635553;0,794874966;0,035913024;1,436521053;1,642165855
2,599635286;1,012747288;-0,038307227;1,328781962;1,671163073
2,601635019;1,091755986;-0,055066638;1,185129881;1,612295352
2,603634752;1,130063176;-0,052672438;1,206677675;1,654052049
2,605634485;1,271321058;0,002394202;1,446097851;1,925477073
2,607633785;1,532289028;0,141257897;1,604115129;2,222847004
2,609633518;1,853112102;0,421379507;1,831564307;2,639358437
2,611633318;1,996764183;0,584185243;1,960851192;2,858894367
2,613633051;2,437297344;1,256955862;2,63601613;3,80380565
2,615632784;2,437297344;1,256955862;2,63601613;3,80380565
2,617632517;2,540247917;1,403002143;2,846705914;4,065096438
2,61963225;2,655169725;1,678335428;3,34469986;4,588436905
2,621631983;2,571372509;1,915361404;3,943250179;5,082301434
2,623632549;2,284068346;2,240972757;4,764461517;5,739252622
2,625632282;2,181117773;2,449268341;5,176563263;6,128050046
2,627632082;2,238578558;2,925714493;5,844545841;6,908672473
2,629631815;2,41574955;3,447650433;6,206069946;7,499162858
2,631631548;2,418143749;3,737348795;6,213252544;7,643278249
2,633631281;2,444479942;5,052064896;5,193322659;7,646531379
2,635631014;2,444479942;5,052064896;5,193322659;7,646531379
2,637630747;2,511517525;5,693710804;4,642356873;7,763861174
2,63963048;2,497152328;5,983409405;4,493916512;7,888741564
2,641630213;2,382230759;6,581959724;4,584896088;8,367705142
2,643630013;2,257732153;7,237970829;4,968267918;9,064726267
2,645629746;2,214636564;7,589918613;5,126285076;9,422859351
2,647629479;2,114080191;8,121431351;5,291484833;9,921027869
2,649629212;2,027888775;8,578723907;5,272331238;10,27152927
2,651628945;2,26970315;8,935460091;5,205293655;10,58721311
2,653628678;2,808398485;10,10383034;5,198111057;11,70447983
2,655628411;2,808398485;10,10383034;5,198111057;11,70447983
2,657628144;2,97599268;10,43183613;5,178957462;12,02087093
2,659627944;2,995146275;10,47493172;5,200505257;12,07229682
2,661627677;3,112462282;10,73350525;5,114314079;12,29031183
2,66362741;3,335123062;11,24825859;4,807557106;12,67907617
2,665627143;3,639186621;11,56189919;4,333505154;12,87246903
2,667626876;3,811569214;12,26579475;4,029441357;13,46158157
2,669626609;4,070142746;13,08940029;3,244143248;14,08626733
2,671626342;4,197035789;13,99440861;2,30801034;14,79139931
2,673626142;4,137180328;15,51502514;0,809240162;16,07753513
2,675625942;4,137180328;15,51502514;0,809240162;16,07753513
2,677625675;3,916913986;16,61396408;-0,256179571;17,07136918
2,679625408;3,629609823;17,17899513;-1,170764685;17,59723362
2,681625141;3,462015629;18,35454941;-1,503558636;18,73861587
2,683624041;3,08133769;19,48221779;-1,788468719;19,80530415
2,685623774;2,683900118;20,55482101;-1,52510643;20,78532984
2,687623507;2,458845139;21,04563141;-1,211466074;21,22338736
2,689623307;2,051830769;21,96261024;-0,438138902;22,06259785
2,691623107;1,70946002;22,75269699;0,397437483;22,8202855
2,69362284;1,323993564;23,6768589;1,63523972;23,77016229
2,695622573;1,323993564;23,6768589;1,63523972;23,77016229
2,697622306;1,218648672;24,16288185;2,427720547;24,31509389
2,699622039;1,26653266;24,46694565;3,11964488;24,69752454
2,701621772;1,335964561;24,55104256;3,435679436;24,82624388
2,703621505;1,59932673;24,54864693;3,955221176;24,91661467
2,705621305;1,982398987;24,32808113;4,367023945;24,79629681
2,707621071;2,394201756;24,15569878;4,5394063;24,69486171
2,709620837;2,604891539;23,73431969;4,824316502;24,3593395
2,711620603;2,966415882;23,26745033;4,970662117;23,97668347
2,713620369;3,349488258;22,53482437;4,857835293;23,29454753
2,715620102;3,349488258;22,53482437;4,857835293;23,29454753
2,717619868;3,378218651;22,43666267;4,742913723;23,17997894
2,719619634;3,430891037;22,37201881;4,458003521;23,06842072
2,721619467;3,361459255;22,40314293;4,268861771;23,05262246
2,723619233;3,287238836;22,5563736;3,809175014;23,11072788
2,725618999;3,055001259;22,87001228;3,311181068;23,30953484
2,727618765;2,736572504;23,33209419;2,78924489;23,65703565
2,729618531;2,516305923;23,62179184;2,549824715;23,89189091
2,731618297;1,984793186;24,31850433;2,138022184;24,4928601
2,733618063;0,895431459;25,53505898;1,685518026;25,6062884
2,735617829;0,464475125;25,96601486;1,611297727;26,02010656
2,737617662;0,004788403;26,4017601;1,537077546;26,44646605
2,739617428;-1,043871999;27,29000854;1,446097851;27,34822543
2,741617194;-2,181117773;28,11600876;1,316810966;28,23120993
2,74361696;-2,79163909;28,51105118;1,235408068;28,67402171
2,745616726;-4,05577755;29,44718361;1,130063176;29,74664682
2,747616492;-5,569212437;30,16544533;1,163581967;30,69729861
2,749616258;-6,299443722;30,00503349;1,106121182;30,67912206
2,751616024;-7,592312813;29,43760681;0,782903969;30,41099879
2,753615857;-9,117419243;29,22452354;-0,169988319;30,61419615
2,755615723;-9,117419243;29,22452354;-0,169988319;30,61419615
2,757615489;-9,277831078;29,39211845;-0,268150598;30,82282728
2,759615255;-9,464578629;29,66026878;-0,074220255;31,13382889
2,761615021;-9,507674217;30,02897644;0,526724398;31,50258297
2,763614787;-9,43345356;30,26839638;0,895431459;31,71699328
2,765614553;-9,040804863;30,70413971;1,587355733;32,04684144
2,767614353;-8,356062889;30,99383926;2,133233786;32,17130003
2,769614153;-7,309797287;31,19495201;2,585737944;32,14411623
2,771613886;-6,706458092;31,20931625;2,743755102;32,03944745
2,773613619;-4,378994942;30,79512024;2,837129116;31,23402518
2,775613385;-4,378994942;30,79512024;2,837129116;31,23402518
2,777613118;-3,835511208;30,66583252;2,741360903;31,02610981
2,779612851;-2,731784105;30,47908592;2,360682964;30,69218381
2,781612584;-1,666364431;30,36176872;1,786074519;30,4598725
2,783612384;-0,679953277;30,19656944;1,120486379;30,22500012
2,785612117;-0,246602774;30,10798454;0,773327172;30,11892397
2,78761185;0,505176544;29,83743858;-0,016759412;29,84171955
2,789611583;1,029506683;29,56450081;-0,802057564;29,59329127
2,791611316;1,216254473;29,44718361;-1,168370485;29,49544011
2,793611049;1,501164436;29,13833237;-2,183511972;29,25856511
2,795610782;1,501164436;29,13833237;-2,183511972;29,25856511
2,797610515;1,424550056;29,03777695;-2,260126352;29,16041845
2,799610315;1,319205165;28,99707413;-2,195482969;29,10997691
2,801610048;1,039083481;28,9252491;-1,922544003;29,00768701
2,803609781;0,66798228;28,87736511;-1,508347034;28,92444514
2,805609514;0,48362875;28,90369987;-1,254561663;28,93495616
2,807609247;0,143652096;28,98510361;-0,74220252;28,99496045
2,80960898;-0,162805721;29,06171799;-0,268150598;29,06341107
2,811608713;-0,48362875;29,15987968;0,08379706;29,16401039
2,813608446;-0,93134445;29,47352028;0,459686726;29,49181432
2,815608146;-0,93134445;29,47352028;0,459686726;29,49181432
2,817607879;-1,221042871;29,74645996;0,689530075;29,77949425
2,819607612;-1,367089152;29,90208244;0,787692368;29,94367924
2,821607345;-1,640028119;30,24205971;1,053448796;30,30481186
2,823607078;-1,877054095;30,5748539;1,328781962;30,66122444
2,825606811;-2,056619167;30,85736847;1,623268723;30,9684012
2,827606544;-2,102109194;30,99383926;1,795651317;31,11689732
2,829606277;-2,118868589;31,26677704;2,202665567;31,41580313
2,831606543;-2,061407566;31,53253365;2,561795712;31,70351521
2,833606276;-1,831564307;31,77913666;2,889801502;31,9627769
2,835606009;-1,745373011;31,84617424;2,956839085;32,03073583
2,837605742;-1,651999116;31,94194221;2,997540474;32,12478829
2,839605475;-1,367089152;32,07362366;2,985569477;32,24127622
2,841605208;-1,230619669;32,08080673;2,920926094;32,2370035
2,843604941;-0,921767652;32,00658798;2,832340717;32,1448827
2,845604741;-0,586579442;31,77674294;2,604891539;31,88872727
2,847604541;-0,404620081;31,64745522;2,437297344;31,74374832
2,849604274;-0,01436521;31,30269051;2,111685991;31,37384033
2,851604007;0,366312861;30,83821487;1,824381709;30,8943045
2,85360374;0,878672004;29,77519035;1,575384736;29,82978146
2,855603573;1,022324085;29,77519035;1,575384736;29,83435845
2,857603306;1,15161097;28,86060524;1,426944256;28,9187986
2,859603039;1,381454349;27,88376999;1,30005157;27,94822318
2,861602839;1,508347034;27,40493011;1,237802267;27,47430545
2,863602572;1,719036818;26,40654755;1,120486379;26,48615356
2,865602305;1,941697598;25,35788727;1,036689281;25,45323871
2,867602038;2,159569979;24,33287048;1,034295082;24,45040071
2,869601771;2,288856745;23,82290459;1,055842996;23,95588555
2,871601504;2,549824715;22,81494713;1,132457376;22,98490544
2,873601237;2,954444885;21,26589775;1,37427175;21,51408317
2,87560097;3,098097086;20,76790428;1,453280449;21,04794712
2,87760077;3,253720045;20,28666878;1,527500629;20,60264261
2,879600503;3,622427225;19,35053635;1,70946002;19,7607563
2,881600236;3,962403774;18,42876816;2,006340981;18,95641168
2,883599969;4,110844135;17,96429443;2,157175779;18,55446904
2,885599702;4,321534157;17,01618958;2,466027737;17,72872409
2,887599435;4,443638325;16,09202766;2,875436306;16,94011245
2,889599168;4,611232281;15,73529243;2,978386879;16,66534367
2,891598434;4,843470097;14,93562889;3,071760893;15,99899772
2,893598234;4,944325924;13,34079075;3,399766445;14,62810543
2,895597967;4,944325924;13,34079075;3,399766445;14,62810543
2,8975977;4,824316502;12,91222858;3,56496644;14,23757923
2,899597433;4,824316502;12,23945808;3,833117008;13,70296136
2,901597166;4,836287498;11,57865906;3,761290789;13,09970728
2,903596899;4,738125324;11,21234608;3,732560396;12,73179262
2,905596632;4,369418144;10,41747093;3,7181952;11,89287564
2,907596365;3,900154591;9,555558205;3,694253206;10,96208945
2,909596165;3,608062029;8,789413452;3,452438831;10,10896801
2,911595898;3,428496838;8,370428085;3,301604033;9,629083346
2,913595631;2,37744236;6,608295918;3,179499865;7,709152126
2,915595264;2,37744236;6,608295918;3,179499865;7,709152126
2,917594997;2,140416384;6,194098949;3,169923067;7,279880242
2,91959473;1,740584612;5,451896667;2,983175278;6,453847442
2,921594463;1,254561663;4,666299343;2,79163909;5,580459061
2,923594263;0,713472128;3,873818398;2,664746523;4,755668774
2,925594063;0,478840351;3,485957623;2,585737944;4,366603868
2,927593796;0,052672438;2,731784105;2,327163935;3,589026437
2,929593529;-0,375889659;1,994369984;2,020706177;2,863923553
2,931593262;-0,603338838;1,608903527;1,920149803;2,576735062
2,933592995;-1,549048543;0,509964943;1,546654344;2,247611018
2,935592728;-1,549048543;0,509964943;1,546654344;2,247611018
2,937592461;-2,025494576;-0,069431849;1,472434044;2,505097018
2,939592261;-2,272097349;-0,328005642;1,431732655;2,705526281
2,941592061;-2,734178305;-0,773327172;1,352723956;3,147003022
2,943591794;-3,076549292;-1,213860273;1,304839969;3,55544929
2,945591527;-3,220201254;-1,422155857;1,278503656;3,745236307
2,94759126;-3,435679436;-1,798045516;1,144428372;4,043090051
2,949590993;-3,627215624;-2,075772762;0,936132848;4,282740998
2,951590726;-3,818751812;-2,430114746;0,799663365;4,59649699
2,953590459;-4,134786129;-2,925714493;0,924161851;5,148818967
2,955590259;-4,134786129;-2,925714493;0,924161851;5,148818967
2,957589992;-4,436455727;-3,303998232;1,474828243;5,724828563
2,959589725;-4,604049683;-3,505111217;1,81959331;6,06580563
2,961589458;-5,006575108;-3,857059002;2,509123325;6,799882228
2,963589191;-5,375282288;-4,192247391;2,999934673;7,447698027
2,965588924;-5,775113583;-4,606443882;3,646369219;8,238159419
2,967588657;-5,976226807;-4,817133904;4,039018154;8,673738153
2,96958839;-6,392817974;-5,183745861;4,929960728;9,593948904
2,97158819;-6,802226067;-5,483021259;5,715258598;10,44020988
2,973587923;-7,324162483;-5,760748386;6,52210474;11,37398032
2,975587656;-7,324162483;-5,760748386;6,52210474;11,37398032
2,977587389;-7,587524414;-5,863699436;6,840533733;11,77906616
2,979587122;-7,752724171;-5,844545841;6,953061104;11,94188037
2,981586855;-7,798214436;-5,811026573;6,931513309;11,94261508
2,983586588;-7,807791233;-5,66976881;6,792649269;11,80033755
2,985586321;-7,762300968;-5,447108269;6,541258335;11,5200853
2,987586121;-7,700051785;-5,298667431;6,383241177;11,31867669
2,989585854;-7,532457829;-4,901230335;5,995380402;10,80298875
2,991585587;-7,072771072;-4,261679173;5,427954674;9,88173527
2,99358532;-5,753565788;-2,997540474;4,058171749;7,652288946
2,995585053;-5,753565788;-2,511517525;4,058171749;7,475292469
2,997584786;-5,305850029;-2,018311977;3,634398222;6,740510233
2,999584519;-4,161122322;-1,079784989;2,681505919;5,066690102
3,001584252;-3,529053211;-0,651222885;2,149993181;4,183393179
3,003584052;-2,30561614;0,098162271;1,060631394;2,539771756
3,005583785;-1,230619669;0,794874966;-0,009576807;1,465040169
3,007583518;-0,306457818;1,489193439;-0,962469101;1,799433318
3,009583251;0,074220255;1,814804912;-1,383848548;2,283432135
3,011582984;0,735019922;2,410961151;-2,140416384;3,306715932
3,013582717;1,766920805;3,462015629;-3,67988801;5,352488871
3,01558245;1,766920805;3,462015629;-3,67988801;5,352488871
3,01758225;1,963245392;3,588908434;-4,065354347;5,767295916
3,01958205;2,118868589;3,512293816;-4,764461517;6,286963138
3,021581783;2,23139596;3,337517262;-5,351340294;6,689917215
3,023581516;2,274491549;3,224989653;-5,605125427;6,85502014
3,025581249;2,300827742;2,882618904;-5,978621006;7,024756877
3,027580982;2,238578558;2,425326347;-6,220435143;7,041821868
3,029580715;2,214636564;2,221819162;-6,280290127;7,020195124
3,031580448;2,078166962;1,833958507;-6,282684326;6,86689916
3,033580248;1,812410712;1,091755986;-5,832574844;6,204489748
3,035579981;1,812410712;1,091755986;-5,832574844;6,204489748
3,037579714;1,826775908;0,924161851;-5,681739807;6,039317228
3,039579447;1,829170108;0,656011283;-5,329792023;5,672997188
3,04157918;1,836352706;0,37110126;-4,963479519;5,305283813
3,043578913;1,826775908;0,225054964;-4,757278919;5,100927629
3,045578646;1,817199111;-0,004788403;-4,343081951;4,707929096
3,047578379;1,742978811;-0,198718742;-3,921702385;4,296185968
3,049578179;1,865083098;-0,253785372;-3,485957623;3,961671683
3,051577912;1,927332401;-0,320823014;-3,296815634;3,832300995
3,053577645;2,173935175;-0,354341865;-2,67432332;3,464615061
3,055577378;2,173935175;-0,354341865;-2,67432332;3,464615061
3,057577111;2,195482969;-0,366312861;-2,521094322;3,363071091
3,059576844;2,161964178;-0,404620081;-2,300827742;3,183019763
3,061576577;2,329558372;-0,442927301;-2,152387381;3,202467524
3,06357631;2,387019157;-0,459686726;-2,003946781;3,15039284
3,06557611;2,387019157;-0,488417149;-1,944091797;3,117034598
3,067575843;2,360682964;-0,531512797;-1,812410712;3,023270167
3,069575576;2,310404539;-0,572214186;-1,683123827;2,915185076
3,071575309;2,284068346;-0,59376204;-1,613691926;2,858937425
3,073575042;2,078166962;-0,691924274;-1,307234168;2,550764256
3,075574775;2,078166962;-0,691924274;-1,307234168;2,550764256
3,077574508;1,951274395;-0,718260527;-1,173158884;2,387398525
3,079574241;1,884236693;-0,768538773;-1,103726983;2,314997412
3,081574041;1,707065821;-0,799663365;-0,9672575;2,11875489
3,083573774;1,510741234;-0,823605359;-0,847547412;1,918072334
3,085573507;1,393425345;-0,81881696;-0,790086567;1,798980876
3,08757324;1,132457376;-0,842759013;-0,708683729;1,579536353
3,089572973;0,861912608;-0,845153213;-0,610521436;1,352743036
3,091572706;0,55784899;-0,833182216;-0,562637389;1,14976038
3,093572439;0,10295067;-0,938527048;-0,246602774;0,975830307
3,095572239;0,10295067;-0,938527048;-0,246602774;0,975830307
3,097572039;-0,210689753;-1,015141487;-0,088585466;1,04055264
3,099571772;-0,368707061;-1,060631394;-0,016759412;1,123015908
3,101571505;-0,708683729;-1,168370485;0,134075299;1,37306169
3,103571238;-1,034295082;-1,254561663;0,299275219;1,653256465
3,105570971;-1,340752959;-1,316810966;0,397437483;1,920824346
3,107570704;-1,508347034;-1,431732655;0,598550439;2,164077586
3,109570437;-1,82198751;-1,544260144;0,794874966;2,517181775
3,111570237;-2,11647439;-1,661576033;0,988805294;2,866711472
3,113570003;-2,473210335;-1,798045516;1,218648672;3,291632061
3,115569769;-2,473210335;-1,798045516;1,218648672;3,291632061
3,117569535;-2,631227732;-1,891419291;1,340752959;3,506913858
3,119569301;-2,786850691;-1,946485996;1,391031146;3,672916029
3,121569067;-2,86107111;-2,054224968;1,491587639;3,824970823
3,123568833;-2,980781078;-2,138022184;1,587355733;3,996985479
3,125568599;-3,040636063;-2,243366957;1,651999116;4,123986427
3,127568432;-3,043030262;-2,284068346;1,680729628;4,159549671
3,129568198;-2,999934673;-2,346317768;1,711854219;4,175555051
3,131567964;-2,93768549;-2,401384354;1,721431017;4,166529443
3,13356773;-2,671929121;-2,482787132;1,721431017;4,033207398
3,135567496;-2,671929121;-2,516305923;1,721431017;4,053927167
3,137567262;-2,56658411;-2,559401512;1,704671621;4,005470688
3,139567028;-2,341529369;-2,664746523;1,668758631;3,920253715
3,141566794;-2,214636564;-2,717418909;1,656787634;3,877360688
3,143566627;-1,927332401;-2,78924489;1,611297727;3,753768454
3,145566393;-1,611297727;-2,837129116;1,539471745;3,607707754
3,147566159;-1,44849205;-2,870647907;1,501164436;3,548555099
3,149565925;-1,101332784;-2,918531895;1,419761658;3,427314617
3,151565691;-0,758961916;-2,916137695;1,371877551;3,310880587
3,153565457;-0,248996973;-2,880224705;1,295263171;3,16787003
3,155565223;-0,248996973;-2,880224705;1,295263171;3,16787003
3,157564989;0,105344877;-2,815581083;1,280897856;3,095043408
3,159564822;0,433350503;-2,705447912;1,304839969;3,034773205
3,161564588;0,603338838;-2,643198729;1,331176162;3,020355483
3,163564354;0,936132848;-2,501940727;1,364694953;2,999740727
3,16556412;1,307234168;-2,348711967;1,436521053;3,047769974
3,167563886;1,675941229;-2,173935175;1,503558636;3,129770234
3,169563652;1,853112102;-2,080561161;1,529894829;3,178574742
3,171563418;2,176329374;-1,89620769;1,594538331;3,297660631
3,173563218;2,746149302;-1,556231141;1,812410712;3,639783502
3,175563018;2,746149302;-1,556231141;1,812410712;3,639783502
3,177562751;2,856282711;-1,472434044;1,889025092;3,727576792
3,179562484;3,086126089;-1,285686255;2,04464817;3,918896468
3,181562217;3,265691042;-1,108515382;2,188300371;4,084385247
3,18356195;3,335123062;-1,024718285;2,26970315;4,162288528
3,185561683;3,438073635;-0,828393817;2,439691544;4,296356766
3,187561416;3,485957623;-0,646434486;2,662352324;4,433722813
3,189561216;3,505111217;-0,55784899;2,772485495;4,503740219
3,191561016;3,541024208;-0,339976639;2,966415882;4,631852733
3,193560749;3,588908434;0,059855044;3,220201254;4,822192705
3,195560482;3,588908434;0,059855044;3,220201254;4,822192705
3,197560215;3,591302633;0,160411507;3,270479441;4,859961134
3,199559948;3,56736064;0,347159237;3,34230566;4,900774285
3,201559681;3,497928619;0,536301196;3,394978046;4,90397793
3,203559414;3,469198227;0,63206923;3,41892004;4,911604839
3,205559214;3,38061285;0,81881696;3,459621429;4,905913258
3,207558947;3,222595453;1,000776291;3,430891037;4,812243546
3,20955868;3,052607059;1,158793569;3,361459255;4,686216034
3,211558413;2,954444885;1,22583127;3,325546265;4,614180842
3,213558146;2,499546528;1,45088625;3,045424461;4,198501388
3,215557879;2,499546528;1,45088625;3,045424461;4,198501388
3,217557612;2,358288765;1,48679924;2,940079689;4,051686866
3,219557345;2,073378563;1,551442742;2,71502471;3,751963809
3,221557145;1,78368032;1,587355733;2,425326347;3,40344261
3,223556878;1,48679924;1,594538331;2,078166962;3,011959892
3,225556611;1,340752959;1,613691926;1,867477298;2,808752675
3,227556344;1,00317049;1,625662923;1,654393315;2,527082945
3,229556077;0,699106872;1,59693253;1,314416766;2,18326255
3,23155581;0,560243189;1,563413739;1,034295082;1,956502305
3,233555543;-0,002394202;1,510741234;0,526724398;1,599932311
3,235555276;-0,002394202;1,510741234;0,526724398;1,599932311
3,237555076;-0,239420176;1,443703651;0,114921682;1,467926853
3,239554809;-0,342370838;1,429338455;-0,10295067;1,473372
3,241554542;-0,509964943;1,441309452;-0,217872351;1,544313939
3,243554275;-0,703895271;1,443703651;-0,344765037;1,642745177
3,245554008;-0,768538773;1,44849205;-0,469263524;1,70557595
3,247553741;-0,89303726;1,527500629;-0,550666392;1,853107443
3,249553474;-1,060631394;1,647210717;-0,636857629;2,060055762
3,251553207;-1,295263171;1,776497602;-0,837970614;2,352837683
3,253553007;-1,280897856;2,23139596;-0,428562105;2,608350575
3,25555274;-1,259350061;2,387019157;-0,215478152;2,707444158
3,257552106;-1,199495077;2,521094322;-0,119710088;2,794465159
3,259551839;-1,132457376;2,647987127;-0,088585466;2,881343943
3,261551572;-1,010353088;2,841917515;0,248996973;3,026434869
3,263551305;-0,957680702;2,892195702;0,902614057;3,177524263
3,265551038;-0,869095206;2,825158119;1,431732655;3,284311689
3,267550838;-0,758961916;2,815581083;1,790862918;3,422091468
3,269550638;-0,591367841;2,837129116;2,86107111;4,072437285
3,271550371;-0,387860686;2,755726099;3,64158082;4,583183731
3,273550104;-0,052672438;2,576161146;4,393360138;5,093230207
3,275549837;-0,052672438;2,576161146;4,393360138;5,093230207
3,27754957;0,153228909;2,475604534;4,833893299;5,433104208
3,279549303;0,378283858;2,437297344;4,71657753;5,322557714
3,281549036;0,488417149;2,470816135;4,599261284;5,243728449
3,283548836;0,634463429;2,619256735;4,556165695;5,29355226
3,285548569;0,746990919;2,870647907;4,295197964;5,219898504
3,287548302;0,78050977;3,038241863;4,077325344;5,144384422
3,289548035;0,794874966;3,478775024;4,127603531;5,456263629
3,291547768;0,78050977;3,655946016;4,582501888;5,913920893
3,293547501;0,684741676;4,19464159;5,200505257;6,716334131
3,295547234;0,684741676;4,19464159;5,200505257;6,716334131
3,297546967;0,756567717;4,742913723;6,07678318;7,745638716
3,299546767;0,857124209;5,198111057;6,488585949;8,358036138
3,3015465;0,905008256;5,413589478;6,462249756;8,47860029
3,303546233;0,960074902;5,892429829;6,380846977;8,738288233
3,305545966;1,012747288;6,349722385;6,258742332;8,973097961
3,307545699;1,055842996;6,840533733;5,674557209;8,950324335
3,309545432;1,048660398;7,111078262;5,427954674;9,007209036
3,311545165;0,984016895;7,714416981;5,296273232;9,409092876
3,313544898;0,864306808;9,107842445;4,57771349;10,23011638
3,315544698;0,864306808;9,107842445;4,57771349;10,23011638
3,317544798;0,840364814;9,488520622;4,465186119;10,52027204
3,319544531;0,811634362;10,28578949;4,122815132;11,11097747
3,321544264;0,847547412;11,14530849;3,270479441;11,64612699
3,323543997;0,881066203;11,60020638;2,894589901;11,98831582
3,32554373;0,943315446;12,58901215;2,346317768;12,84049368
3,327543463;1,11569798;13,58260536;1,620874524;13,72440107
3,329543196;1,182735682;14,08538818;1,367089152;14,20091394
3,331542996;1,335964561;15,10561752;0,93134445;15,19315255
3,333542762;1,587355733;16,62833023;0,430956304;16,70948197
3,335542528;1,587355733;17,13350677;0,430956304;17,2122769
3,337542294;1,625662923;17,63868332;0,306457818;17,71609002
3,33954206;1,649604917;18,63467026;0,174776718;18,70835853
3,341541826;1,568202138;19,70009041;0,215478152;19,76358396
3,343541592;1,482010841;20,26512146;0,313640416;20,32166022
3,345541425;1,213860273;21,41433907;0,715866327;21,46065793
3,347541258;0,825999558;22,55397797;1,549048543;22,62219593
3,349541058;0,392649084;23,755867;2,755726099;23,91839076
3,351540858;0,179565132;24,3639946;3,323152065;24,59023823
3,353540658;-0,701501071;27,03861809;5,219658852;27,5467568
3,355540458;-0,701501071;27,03861809;5,219658852;27,5467568
3,357540258;-0,943315446;27,79997444;5,63385582;28,38078143
3,359540058;-1,424550056;29,38014603;6,37127018;30,09676739
3,361539924;-1,951274395;30,90764809;7,111078262;31,77511001
3,36353979;-2,592920542;32,25558472;7,779060364;33,28152284
3,365539656;-2,968810081;32,77751923;8,028057098;33,87667783
3,367539522;-3,861847401;33,56281662;8,408735275;34,81498749
3,369539388;-4,999392509;33,89082336;8,590695381;35,31829386
3,371539254;-5,478232861;33,33297348;8,516474724;34,83717121
3,37353912;-6,438307762;30,40007591;7,384017467;31,93963269
3,375538986;-6,438307762;30,40007591;7,384017467;31,93963269
3,377538919;-6,397606373;29,28677368;6,778284073;30,73417666
3,379538785;-6,323386192;28,84384537;6,495768547;30,23487452
3,381538651;-6,165368557;28,1207962;6,189310551;29,44653653
3,383538517;-5,990592003;27,57491875;6,129455566;28,87617637
3,385538383;-5,916371822;27,42647743;6,055235386;28,70332725
3,387538249;-5,55484724;27,39535332;5,626673222;28,51352596
3,389538115;-4,805162907;27,41450691;4,778826714;28,23972317
3,391537981;-4,343081951;27,29719162;3,969586372;27,92412303
3,393537881;-4,110844135;26,61005592;3,895366192;27,20602862
3,395537714;-4,110844135;26,61005592;3,895366192;27,20602862
3,397537547;-3,636792421;26,17191696;4,199429989;26,75501278
3,39953738;-3,248931646;25,70744133;4,240131378;26,25655748
3,401537213;-2,152387381;24,99875832;4,106055737;25,42499523
3,403537046;-1,362300754;24,60371399;4,170699596;24,99186549
3,405536879;-0,909796655;24,45736885;4,38617754;24,86421474
3,407536712;-0,725443125;24,44539833;4,510675907;24,86865425
3,409536578;-0,272938997;24,83595276;4,639962673;25,26713871
3,411536378;0,146046311;25,06340027;4,517858505;25,46775232
3,413536178;0,608127236;24,91735458;3,572149038;25,1794485
3,415535978;0,608127236;24,91735458;3,572149038;25,1794485
3,417535778;0,579396784;24,69708824;2,703053713;24,85132527
3,419535578;0,229843363;24,51961899;1,848323703;24,59025912
3,421535378;-0,04070143;24,15809441;1,489193439;24,20398478
3,423535178;-0,749385118;23,83966446;1,065419793;23,87522354
3,425534978;-1,513135433;23,50687027;0,936132848;23,57411448
3,427534711;-1,869871497;23,34406471;0,897825658;23,4360378
3,429534444;-2,559401512;23,17886543;0,993593693;23,34089902
3,431534177;-2,932897091;23,1166153;1,280897856;23,33710538
3,43353391;-2,557007313;23,60982132;1,659181833;23,80577311
3,435533643;-2,557007313;23,60982132;1,659181833;23,80577311
3,437533376;-2,322375536;23,80375099;1,711854219;23,97795726
3,439533176;-1,889025092;24,14612198;1,745373011;24,28270886
3,441532976;-1,726219416;24,29456329;1,752555609;24,4187856
3,443532709;-1,501164436;24,59653282;1,714248419;24,70185356
3,445532442;-1,462857246;24,81200981;1,606509328;24,90695996
3,447532175;-1,582567334;24,91256714;1,565807939;25,0118427
3,449531908;-1,687912226;25,08494949;1,477222443;25,18503375
3,451531641;-1,912967205;25,25493813;1,424550056;25,36731531
3,453531374;-2,133233786;25,67392349;1,508347034;25,80651361
3,455531174;-2,133233786;25,67392349;1,508347034;25,80651361
3,457530907;-2,161964178;25,99235153;1,685518026;26,13651465
3,45953064;-2,070984364;26,17431068;1,877054095;26,32312383
3,461530373;-1,841141105;26,21022415;1,977610588;26,34912891
3,463530106;-1,680729628;26,25571442;2,183511972;26,3999075
3,465529839;-1,331176162;26,22458839;2,430114746;26,37056169
3,467529572;-0,940921247;26,1168499;2,700659513;26,27296602
3,469529305;-0,749385118;26,07614899;2,868253708;26,24412322
3,471529105;-0,330399841;25,99235153;3,248931646;26,19669939
3,473528838;0,447715729;25,95404434;4,19464159;26,29463605
3,475528571;0,447715729;25,96122742;4,19464159;26,30172611
3,477528304;0,612915635;25,96362114;4,46279192;26,3515047
3,479528037;0,885854602;26,00671577;4,987421513;26,49544069
3,48152777;1,060631394;26,06657219;5,494992256;26,66057135
3,483527503;1,15400517;26,09290886;5,729623795;26,73948783
3,485527236;1,254561663;26,13360977;6,162974358;26,87976446
3,487527036;1,261744261;26,14318657;6,553229332;26,98153104
3,489526769;1,22583127;26,15755081;6,735188484;27,03854454
3,491526502;1,122880578;26,23656082;6,960243702;27,1673145
3,493526235;0,74459672;26,52625847;7,142202854;27,48104573
3,495525968;0,74459672;26,52625847;7,142202854;27,48104573
3,497525701;0,591367841;26,62202644;7,115866661;27,56297455
3,499525434;0,217872351;26,85905266;6,998550892;27,75672698
3,501525167;-0,177170932;27,13677979;6,780678272;27,97166074
3,503524967;-0,37349546;27,29958534;6,617872715;28,09275882
3,5055247;-0,687135875;27,80476189;6,170156956;28,48943271
3,507524433;-1,086967587;28,00826836;5,858911037;28,63514333
3,509524166;-1,549048543;27,96278;5,506963253;28,54195615
3,511523899;-1,786074519;27,88855934;5,332186222;28,44985086
3,513523632;-2,631227732;27,38817024;4,8314991;27,93525751
3,515523365;-2,631227732;27,38817024;4,8314991;27,93525751
3,517523165;-2,82276392;27,22297096;4,738125324;27,7760324
3,519522965;-3,12203908;26,8734169;4,570530891;27,43751841
3,521522698;-3,294421434;26,46161461;4,453215122;27,03518791
3,523522431;-3,332728863;25,98995781;4,493916512;26,58533946
3,525522164;-3,301604033;25,7433548;4,556165695;26,35108254
3,527521897;-3,167528868;25,2238121;4,599261284;25,83461129
3,52952163;-2,954444885;24,66117477;4,606443882;25,26106908
3,531521363;-2,827552319;24,35681152;4,639962673;24,95553192
3,533521163;-2,336740971;23,0878849;4,817133904;23,70053938
3,535520896;-2,336740971;23,0878849;4,817133904;23,70053938
3,537520629;-2,106897593;22,32413483;4,874594688;22,9470627
3,539520362;-2,003946781;21,89796638;4,893748283;22,52743897
3,541520095;-1,807622313;20,98098755;4,927566528;21,62753451
3,543519828;-1,613691926;20,00894165;4,934749126;20,67156251
3,545519561;-1,503558636;19,53967857;4,92038393;20,20568993
3,547519294;-1,326387763;18,60354614;4,901230335;19,2840165
3,549519094;-1,125274777;17,68417168;4,903624535;18,3859105
3,551518827;-0,995987892;16,77676964;4,917989731;17,51109975
3,55351856;-0,859518409;15,51981354;5,030517101;16,33736473
3,555518293;-0,859518409;15,51981354;5,030517101;16,33736473
3,557518026;-0,751779318;14,82549572;5,152621269;15,71337015
3,559517759;-0,694318473;14,49479675;5,222053051;15,42242034
3,561517492;-0,567425787;13,85554409;5,389647484;14,87771401
3,563517225;-0,426167905;13,25699425;5,552453041;14,37912551
3,565517025;-0,239420176;12,65844345;5,712864399;13,88993637
3,567516758;-0,141257897;12,34719753;5,799055576;13,64193118
3,569516491;0,062249243;11,73188782;5,942708015;13,15130584
3,571516224;0,284909993;11,10939503;6,009745598;12,63395717
3,573515957;0,691924274;10,21396351;5,878064632;11,80489109
3,57551569;0,691924274;10,21396351;5,878064632;11,80489109
3,577515423;0,986411095;9,644144058;5,700893402;11,24645309
3,579515156;1,312022567;9,141361237;5,502174854;10,74987519
3,581514956;1,45088625;8,880393028;5,389647484;10,4887917
3,583514689;1,687912226;8,291419983;5,092766285;9,875877756
3,585514422;1,903390408;7,628225803;4,699818134;9,159749693
3,587514155;2,018311977;7,302614689;4,479551315;8,801598975
3,589513888;2,257732153;6,718429089;4,041412354;8,158900521
3,591513621;2,559401512;6,361693382;3,615244627;7,751881869
3,593513354;2,870647907;5,667374611;3,114856482;7,075456543
3,595513154;2,870647907;5,667374611;3,114856482;7,075456543
3,597512954;3,071760893;5,066430092;2,839523315;6,570184283
3,599512687;3,260902643;4,489128113;2,571372509;6,115367024
3,60151242;3,354276657;4,206612587;2,432508945;5,904562737
3,603512153;3,397372246;3,703830004;2,176329374;5,476942981
3,605511886;3,347094059;3,131615877;2,059013367;5,024897281
3,607511619;3,378218651;2,475604534;1,987187386;4,635719229
3,609511352;3,426102638;2,178723574;1,89860189;4,482154039
3,611511152;3,45722723;1,666364431;1,74776721;4,217093876
3,613510952;3,136404276;1,007958889;1,958456993;3,832566594
3,615510685;3,136404276;1,007958889;1,958456993;3,832566594
3,617510951;3,035847664;0,797269166;2,090138197;3,771032596
3,619510684;2,796427488;0,488417149;2,315192938;3,66315115
3,621510417;2,616862535;0,134075299;2,49236393;3,616327374
3,62351015;2,557007313;-0,004788403;2,549824715;3,611082303
3,625509883;2,171540976;-0,110133275;2,767697096;3,519640147
3,627509683;1,683123827;-0,301669419;3,052607059;3,498902702
3,629509416;1,381454349;-0,351947635;3,19865346;3,501951914
3,631509149;0,888248801;-0,366312861;3,409343243;3,542145168
3,633508882;0,177170932;-0,78050977;3,409343243;3,502028896
3,635508615;0,177170932;-0,78050977;3,409343243;3,502028896
3,637508348;0,004788403;-0,921767652;3,330334663;3,455547352
3,639508081;-0,308852017;-1,223437071;3,179499865;3,420731972
3,641507814;-0,59376204;-1,56101954;3,01190567;3,443967353
3,643507614;-0,751779318;-1,70946002;2,920926094;3,466876829
3,645507347;-1,079784989;-2,066195965;2,719813108;3,582245767
3,64750708;-1,434126854;-2,394201756;2,53067112;3,767388777
3,649506813;-1,762132406;-2,722207308;2,387019157;4,02658462
3,651506546;-1,927332401;-2,911349297;2,310404539;4,186709214
3,653506279;-2,499546528;-3,615244627;1,956062794;4,810811596
3,655506112;-2,499546528;-3,615244627;1,956062794;4,810811596
3,657505845;-2,662352324;-3,770867586;1,862688899;4,977667343
3,659505645;-2,956839085;-4,096478939;1,721431017;5,33735532
3,661505378;-3,244143248;-4,405331135;1,687912226;5,725421862
3,663505111;-3,517082214;-4,680664539;1,584961534;6,065524783
3,665504844;-3,651157618;-4,778826714;1,513135433;6,201428508
3,667504577;-3,876212597;-4,95869112;1,496376038;6,469372687
3,66950431;-4,034229755;-5,174169064;1,572990537;6,746950011
3,671504043;-4,103661537;-5,277119637;1,620874524;6,878609154
3,673503776;-4,323928356;-5,681739807;1,845929503;7,374685037
3,675503576;-4,323928356;-5,681739807;1,845929503;7,374685037
3,677502776;-4,371812344;-5,832574844;1,975216389;7,552029678
3,679502509;-4,359841347;-5,916371822;2,027888775;7,623910086
3,681502242;-4,319139957;-6,026504993;2,140416384;7,717196039
3,683501975;-4,230554581;-6,11748457;2,274491549;7,777822402
3,685501708;-4,182670593;-6,143820763;2,324769735;7,787542692
3,687501441;-4,019864559;-6,15339756;2,372653961;7,723541896
3,689501241;-3,790021181;-6,162974358;2,432508945;7,633060543
3,691501041;-3,493140221;-6,179733753;2,542642117;7,540302832
3,693500774;-2,923320293;-6,23001194;2,736572504;7,405921913
3,695500507;-2,923320293;-6,23001194;2,736572504;7,405921913
3,69750024;-2,466027737;-6,232406139;2,825158119;7,273630282
3,699499973;-2,212242365;-6,208464146;2,846705914;7,179329905
3,701499706;-1,699883223;-6,189310551;2,827552319;7,013716574
3,703499439;-1,027112484;-5,997774601;2,710236311;6,661354298
3,705499239;-0,01436521;-5,286696434;2,379836559;5,797670877
3,707498972;0,486022949;-4,730942726;2,166752577;5,226170119
3,709498705;1,364694953;-3,536235809;1,817199111;4,2035186
3,711498438;1,936909199;-2,456450939;1,63523972;3,529840988
3,713498171;2,133233786;-1,139639974;1,642422318;2,92352813
3,715497804;2,090138197;-0,809240162;1,683123827;2,802936521
3,717497537;2,032677174;-0,509964943;1,716642618;2,709003989
3,71949727;1,89860189;-0,002394202;1,699883223;2,548391225
3,72149707;1,853112102;0,20590134;1,59932673;2,456474264
3,723496803;1,812410712;0,474051923;1,199495077;2,224487864
3,725496536;1,798045516;0,562637389;0,603338838;1,978268501
3,727496269;1,769315004;0,555454791;0,272938997;1,874433596
3,729496002;1,663970232;0,474051923;-0,37110126;1,769530532
3,731495735;1,549048543;0,378283858;-0,840364814;1,802460287
3,733495468;1,403002143;0,344765037;-1,285686255;1,933977014
3,735495201;1,33835876;0,368707061;-1,37666595;1,955085217
3,737495001;1,283292055;0,414196908;-1,429338455;1,965046055
3,739494734;1,18991828;0,524330199;-1,508347034;1,991466406
3,741494467;1,120486379;0,569819987;-1,532289028;1,981942029
3,7434942;0,993593693;0,644040287;-1,570596337;1,966923784
3,745493933;0,905008256;0,689530075;-1,594538331;1,95883745
3,747493666;0,85473001;0,711077929;-1,613691926;1,959642019
3,749493399;0,828393817;0,718260527;-1,608903527;1,946973308
3,751493132;0,802057564;0,67037648;-1,592144132;1,904632221
3,753492932;0,770932972;0,517147541;-1,570596337;1,824431989
3,755492798;0,782903969;0,462080926;-1,565807939;1,810583306
3,757492564;0,790086567;0,395043284;-1,55862534;1,791538147
3,75949233;0,78050977;0,263362199;-1,565807939;1,769268111
3,761492096;0,737414122;0,193930343;-1,577778935;1,752362672
3,763491862;0,720654726;0,062249243;-1,594538331;1,750934234
3,765491628;0,679953277;-0,050278235;-1,642422318;1,778318147
3,767491461;0,629675031;-0,179565132;-1,690306425;1,812696911
3,769491294;0,610521436;-0,246602774;-1,721431017;1,843061067
3,77149106;0,581790984;-0,366312861;-1,733402014;1,864764972
3,773490826;0,502782345;-0,507570744;-1,759738207;1,899235821
3,775490592;0,490811348;-0,536301196;-1,766920805;1,910634419
3,777490358;0,488417149;-0,562637389;-1,771709204;1,921995225
3,779490124;0,459686726;-0,627280831;-1,788468719;1,950234213
3,78148989;0,454898328;-0,651222885;-1,774103403;1,943827826
3,783489723;0,459686726;-0,641646028;-1,769315004;1,937394409
3,785489489;0,454898328;-0,636857629;-1,714248419;1,884454236
3,787489255;0,407014281;-0,656011283;-1,63523972;1,808319765
3,789489021;0,337582439;-0,646434486;-1,482010841;1,651725032
3,791488787;0,311246216;-0,627280831;-1,419761658;1,583059889
3,793488553;0,246602774;-0,493205547;-1,192312479;1,313648997
3,795488319;0,246602774;-0,493205547;-1,192312479;1,313648997
3,797488085;0,237025961;-0,447715729;-1,122880578;1,231865039
3,799487918;0,196324542;-0,378283858;-0,950498104;1,041675885
3,801487684;0,129286885;-0,29688102;-0,737414122;0,805377567
3,80348745;0,10055647;-0,241814375;-0,524330199;0,586095515
3,805487216;0,10055647;-0,086191259;-0,411802679;0,432575986
3,807486982;0,064643443;0,112527482;-0,198718742;0,237340151
3,809486748;0,004788403;0,289698392;0,009576807;0,289896193
3,811486514;-0,021547815;0,380678058;0,136469498;0,404974093
3,81348628;-0,134075299;0,766144514;0,694318473;1,042608145
3,81548598;-0,134075299;0,766144514;0,694318473;1,042608145
3,817485713;-0,20350714;0,835576415;0,962469101;1,290716805
3,819485446;-0,241814375;0,962469101;1,084573388;1,470074963
3,821485179;-0,328005642;1,079784989;1,30005157;1,721527638
3,823484912;-0,411802679;1,18991828;1,534683347;1,985129702
3,825484645;-0,447715729;1,233013868;1,661576033;2,116980748
3,827484378;-0,533906996;1,30005157;1,833958507;2,310539887
3,829484111;-0,624886632;1,362300754;1,975216389;2,47948108
3,831483911;-0,663193882;1,398213744;2,039859772;2,560440526
3,833483644;-0,70628953;1,496376038;2,272097349;2,810767246
3,835483377;-0,70628953;1,496376038;2,272097349;2,810767246
3,83748311;-0,691924274;1,544260144;2,355894566;2,900644376
3,839482843;-0,694318473;1,568202138;2,389413357;2,941195722
3,841482576;-0,689530075;1,630451322;2,470816135;3,039532137
3,843482309;-0,687135875;1,707065821;2,561795712;3,154207776
3,845482109;-0,622492433;1,728613615;2,592920542;3,17786702
3,847481909;-0,574608386;1,738190413;2,616862535;3,193657815
3,849481642;-0,48362875;1,745373011;2,628833532;3,192332917
3,851481142;-0,380678058;1,716642618;2,643198729;3,174630243
3,853480875;-0,270544797;1,656787634;2,647987127;3,135279187
3,855480608;-0,210689753;1,620874524;2,633621931;3,099611084
3,857480341;-0,14844051;1,587355733;2,607285738;3,05608765
3,859480074;0,004788403;1,551442742;2,580949545;3,011361497
3,861479874;0,074220255;1,489193439;2,52827692;2,935198449
3,863479674;0,198718742;1,422155857;2,466027737;2,853648405
3,865479407;0,299275219;1,347935557;2,379836559;2,751384737
3,86747914;0,33518824;1,312022567;2,33913517;2,702833276
3,869478873;0,387860686;1,221042871;2,250549555;2,589663087
3,871478606;0,450109929;1,108515382;2,085349798;2,404181582
3,873478339;0,486022949;0,957680702;1,829170108;2,121139769
3,875478072;0,486022949;0,957680702;1,829170108;2,121139769
3,877478005;0,452504128;0,78050977;1,716642618;1,939282694
3,879477738;0,44532153;0,684741676;1,527500629;1,732177993
3,881477471;0,462080926;0,672770679;1,403002143;1,623130981
3,883477071;0,469263524;0,718260527;1,18752408;1,465032382
3,885476804;0,462080926;0,773327172;1,017535686;1,359018973
3,887476537;0,464475125;0,785298169;0,957680702;1,322717915
3,88947717;0,457292527;0,81881696;0,909796655;1,306639821
3,891476903;0,402225882;0,852335811;0,869095206;1,282025145
3,893476703;0,349553436;0,92895025;0,81881696;1,286700193
3,895476436;0,349553436;0,92895025;0,81881696;1,286700193
3,897476169;0,330399841;0,952892303;0,828393817;1,305145246
3,899475902;0,265756398;0,972045898;0,885854602;1,341729506
3,901475635;0,232237563;0,969651699;0,924161851;1,359497639
3,903475368;0,165199921;0,988805294;1,00556469;1,419925092
3,905475101;0,059855044;1,017535686;1,113303781;1,509439236
3,907474834;-0,04070143;1,067813993;1,206677675;1,611817093
3,909474634;-0,081402861;1,072602391;1,26413846;1,659863959
3,9114746;-0,191536129;1,048660398;1,369483352;1,735470936
3,913474333;-0,361524463;1,180341482;1,601720929;2,022230424
3,915474066;-0,361524463;1,180341482;1,601720929;2,022230424
3,917473799;-0,37349546;1,209071875;1,771709204;2,177224646
3,919473532;-0,270544797;1,295263171;1,905784607;2,320111234
3,921473265;0,045489833;1,395819545;1,312022567;1,916190163
3,923472998;0,191536129;1,443703651;1,017535686;1,776610592
3,925472798;0,229843363;1,563413739;0,720654726;1,736788336
3,927472531;0,011971008;1,659181833;0,598550439;1,763884999
3,929472264;-0,105344877;1,673547029;0,737414122;1,831839728
3,931471997;-0,263362199;1,640028119;1,532289028;2,259858745
3,93347173;-0,677559078;2,094926596;3,481169224;4,119022082
3,935471463;-0,677559078;2,094926596;3,481169224;4,119022082
3,937471063;-0,646434486;2,406172752;3,928884983;4,652277084
3,939470863;-0,265756398;3,055001259;4,659116745;5,57772606
3,941470663;0,18674773;3,732560396;5,202899456;6,40601628
3,943470529;0,299275219;4,060565948;5,214870453;6,616089126
3,945470262;0,342370838;4,568136692;4,517858505;6,433982911
3,947469995;0,423773706;4,910807133;3,667917013;6,144039881
3,949468828;0,533906996;5,085583687;3,023876667;5,940711087
3,951468561;0,555454791;5,135861874;2,774879694;5,863920576
3,953468294;0,605733037;5,171774864;2,209848166;5,656641819
3,955468094;0,605733037;5,171774864;2,209848166;5,656641819
3,957467827;0,723048925;5,181351662;2,090138197;5,633638476
3,95946756;0,916979253;5,164592266;1,886630893;5,57433766
3,961467293;1,019929886;5,205293655;1,675941229;5,562743749
3,963467026;1,082179189;5,377676487;1,426944256;5,668040764
3,965466759;1,144428372;5,51893425;1,209071875;5,764564715
3,967466492;1,26413846;5,834969044;0,512359142;5,992280174
3,969466225;1,453280449;6,251559734;-0,495599747;6,437362991
3,971466025;1,616086125;6,536469936;-1,094150186;6,821608184
3,973465758;1,927332401;7,491756439;-3,416525841;8,456575758
3,975465491;1,927332401;7,491756439;-3,416525841;8,456575758
3,977465224;2,025494576;8,123826027;-4,209006786;9,370961302
3,979464957;2,118868589;8,511686325;-4,5394063;9,876467878
3,98146469;2,135627985;9,155726433;-5,025728703;10,66049635
3,983464423;1,805228114;9,663297653;-5,217264652;11,12915183
3,985464156;1,826775908;9,976937294;-5,183745861;11,3906808
3,987463956;1,620874524;10,65210247;-4,697423935;11,75416151
3,989463689;1,312022567;11,16446209;-3,933673382;11,90967687
3,991463422;1,051054597;11,76780033;-2,928108692;12,17208531
3,993463155;0,565031588;12,50521469;-0,840364814;12,54614954
3,995462888;0,565031588;12,50521469;-0,840364814;12,54614954
3,997462621;0,462080926;13,02475643;0,828393817;13,05925094
3,999462354;0,478840351;13,37430954;1,707065821;13,49131267
4,001462087;0,383072257;14,10454178;3,493140221;14,53571022
4,003461887;0,215478152;14,84225464;5,133467674;15,7064141
4,00546162;-0,088585466;15,68262005;6,718429089;17,06135131
4,007461353;-0,256179571;16,13751793;7,467814445;17,78351387
4,009461086;-0,59376204;17,06646919;8,719982147;19,17433213
4,011460819;-0,940921247;17,98823547;9,416694641;20,32574934
4,013460552;-1,551442742;19,39602661;9,809343338;21,79073288
4,015460285;-1,551442742;19,39602661;9,809343338;21,79073288
4,017460085;-1,922544003;20,24836159;9,378387451;22,39746579
4,019459885;-2,272097349;21,11266899;8,456619263;22,85654453
4,021459618;-2,470816135;21,52447128;7,836521626;23,03950667
4,023459351;-2,849100113;22,38638496;6,33056879;23,43808235
4,025459084;-3,184288263;23,2243557;4,426878929;23,85597716
4,027458817;-3,315969467;23,64334106;3,371036053;24,11155562
4,02945855;-3,473986626;24,41427422;1,15161097;24,68707306
4,031458283;-3,507505417;25,14241028;-0,952892303;25,40376729
4,033458083;-3,229778051;26,22458839;-3,778050184;26,69146242
4,035457816;-3,229778051;26,22458839;-3,778050184;26,69146242
4,037457549;-3,114856482;26,4113369;-4,05577755;26,90186572
4,039457282;-2,868253708;26,67469978;-4,046200752;27,1318674
4,041457015;-2,698265314;26,7154007;-3,809175014;27,12016011
4,043456748;-2,176329374;26,72497749;-3,023876667;26,98341457
4,045456481;-1,572990537;26,23177147;-1,939303398;26,35035164
4,047456214;-1,872265697;24,73300171;-0,912190855;24,82053272
4,049456014;-1,814804912;24,29216957;-0,241814375;24,36106511
4,051455747;-1,400607944;24,10302734;0,93134445;24,16164382
4,05345548;-0,378283858;24,29695702;2,315192938;24,40994341
4,055455213;-0,062249243;24,38793755;2,868253708;24,55610417
4,057454946;0,222660765;24,50285912;3,469198227;24,74823264
4,059454679;0,74220252;24,74976158;4,496310711;25,16581755
4,061454412;1,192312479;24,98678589;5,171774864;25,54424267
4,063454145;1,417367458;25,12565041;5,425560474;25,74381373
4,065453945;1,865083098;25,47759819;5,842151642;26,20529107
4,067453678;2,312798738;25,83672905;6,012139797;26,62764411
4,069453411;2,554613113;26,01150513;6,009745598;26,81867799
4,071453144;3,047818661;26,35387611;5,92594862;27,18331937
4,073452877;3,967192173;26,85905266;5,538087845;27,70952436
4,07545261;3,967192173;26,85905266;5,538087845;27,70952436
4,077451943;4,149151325;26,95721436;5,375282288;27,79928996
4,079451676;4,477157116;27,0888958;5,037699699;27,91472066
4,081451476;4,764461517;27,17987633;4,656722069;27,98447482
4,083451209;4,881777287;27,22297096;4,46279192;28,01496759
4,085450942;5,097554684;27,36901665;4,106055737;28,14085695
4,087450675;5,44231987;27,84785843;3,744531393;28,62068448
4,089450408;5,07361269;26,70343018;3,435679436;27,39741999
4,091450141;4,553771496;25,78644943;3,447650433;26,41143886
4,093449874;2,731784105;22,78621674;2,724601507;23,1105554
4,095449674;2,731784105;22,78621674;2,724601507;23,1105554
4,097449474;2,511517525;22,4294796;2,394201756;22,69628775
4,099449207;2,272097349;22,2618866;2,035071373;22,46988066
4,10144894;2,176329374;22,58270836;1,903390408;22,76703805
4,103448673;2,039859772;22,98732948;1,908178806;23,1564136
4,105448406;1,889025092;23,14534569;1,975216389;23,30615632
4,107448139;1,431732655;23,293787;2,126051188;23,43438638
4,109447872;0,93134445;23,31772804;2,166752577;23,43669474
4,111447672;0,699106872;23,30575752;2,145204782;23,41471733
4,113447472;-0,047884032;23,55714989;2,087743998;23,6495302
4,115447205;-0,047884032;23,55714989;2,087743998;23,6495302
4,117446938;-0,337582439;23,8731842;2,063801765;23,96460231
4,119446671;-0,440533102;24,06472015;2,049436569;24,15584848
4,121446404;-0,598550439;24,471735;2,061407566;24,56569718
4,123446137;-0,735019922;24,92453766;2,015917778;25,01672953
4,12544587;-0,802057564;25,17114067;1,97042799;25,26088291
4,12744567;-0,92895025;25,68828773;1,831564307;25,77024841
4,129445403;-1,019929886;26,23895454;1,589749932;26,30684887
4,131445136;-1,103726983;26,8039856;1,295263171;26,85795159
4,133444869;-1,18752408;27,68505287;0,974440098;27,72763783
4,135444602;-1,18752408;27,68505287;0,974440098;27,72763783
4,137444735;-1,323993564;28,28120804;0,737414122;28,32178431
4,139444468;-1,393425345;28,59245491;0,591367841;28,63249601
4,141444201;-1,510741234;29,17424583;0,251391172;29,21441693
4,143444001;-1,611297727;29,6818161;-0,062249243;29,72558431
4,145443734;-1,680729628;30,13192558;-0,280121595;30,18006394
4,147443467;-1,680729628;30,33782768;-0,380678058;30,38673323
4,1494432;-1,680729628;30,70413971;-0,553060591;30,75507964
4,151442933;-1,608903527;31,03214645;-0,660799682;31,08085167
4,153442633;-1,383848548;31,42718887;-0,691924274;31,46525062
4,155442366;-1,290474772;31,51577568;-0,682347476;31,54956481
4,157441799;-1,158793569;31,60196686;-0,66798228;31,63025944
4,159441599;-0,878672004;31,69055176;-0,684741676;31,71012467
4,161441365;-0,773327172;31,83181;-0,694318473;31,84877142
4,163441131;-0,656011283;31,85814476;-0,622492433;31,87097795
4,165441097;-0,541089594;31,8222332;-0,63206923;31,83310879
4,167440863;-0,490811348;31,78631973;-0,644040287;31,79663199
4,169440263;-0,433350503;31,6953392;-0,591367841;31,70381737
4,171440029;-0,375889659;31,56365967;-0,466869324;31,56935019
4,173439795;-0,320823014;31,34339142;-0,20350714;31,34569393
4,175439628;-0,320823014;31,34339142;-0,20350714;31,34569393
4,177439394;-0,289698392;31,18058586;-0,04309563;31,1819614
4,17943916;-0,299275219;30,95074272;0,098162271;30,95234525
4,181438926;-0,301669419;30,81188011;0,179565132;30,81388006
4,183438692;-0,308852017;30,54133415;0,37110126;30,54515015
4,185438458;-0,342370838;30,23966599;0,598550439;30,24752683
4,187438224;-0,37110126;30,05770683;0,802057564;30,07069591
4,189438057;-0,361524463;29,68660545;0,861912608;29,7013154
4,19143789;-0,299275219;29,30113792;0,902614057;29,31656463
4,193437656;-0,10055647;28,72413635;0,804451764;28,73557488
4,195437422;-0,031124622;28,54457092;0,761356115;28,55473973
4,197437188;0,055066638;28,36261177;0,701501071;28,3713391
4,199436954;0,232237563;28,00348091;0,636857629;28,01168444
4,20143672;0,459686726;27,82152176;0,622492433;27,83228129
4,203436486;0,591367841;27,45520782;0,644040287;27,46912704
4,205436319;0,85473001;27,11044312;0,70628953;27,13310771
4,207436085;1,089361787;26,67469978;0,785298169;26,708482
4,209435851;1,206677675;26,43527794;0,864306808;26,47691479
4,211435617;1,465251446;25,97798538;1,094150186;26,04227046
4,213435417;1,97042799;24,97720909;1,479616642;25,09846262
4,215435183;1,97042799;24,97720909;1,479616642;25,09846262
4,217434816;2,04704237;24,70905876;1,589749932;24,8446226
4,219434582;2,157175779;24,11021042;1,874659896;24,27900335
4,221434382;2,226607561;23,46377563;2,135627985;23,66574434
4,223434115;2,262520552;23,12379837;2,250549555;23,34296518
4,225433648;2,341529369;22,40793228;2,396595955;22,65704882
4,227433381;2,382230759;21,68967247;2,7509377;21,99283005
4,229433481;2,449268341;21,31857109;2,806004286;21,64148906
4,231433214;2,485181332;20,60749245;2,782062292;20,9424149
4,233432947;2,588132143;19,17576027;3,174711466;19,60834013
4,23543268;2,588132143;19,17576027;3,174711466;19,60834013
4,23743248;2,616862535;18,79747581;3,131615877;19,23538626
4,239432213;2,633621931;18,04330254;3,162740469;18,50674629
4,241431946;2,626439333;17,30588913;3,406949043;17,83253442
4,243431679;2,573766708;16,9299984;3,414131641;17,46154105
4,245431412;2,571372509;16,19976807;3,27287364;16,72591235
4,247431145;2,607285738;15,42644024;3,354276657;16,00075527
4,249430878;2,626439333;14,65760231;3,320757866;15,25683197
4,251430611;2,624045134;14,26016426;3,169923067;14,84204534
4,253430411;2,466027737;12,87870979;3,057395458;13,46440217
4,255430144;2,466027737;12,87870979;3,057395458;13,46440217
4,257429877;2,437297344;12,52197456;2,93529129;13,0903094
4,25942961;2,422932148;11,76301193;2,552218914;12,27814609
4,261429343;2,365471363;10,97531986;2,53067112;11,50901374
4,263429076;2,319981337;10,12537861;2,358288765;10,65209516
4,265428809;2,264914751;9,684844971;2,15478158;10,17689268
4,267428609;2,149993181;8,856451035;1,951274395;9,320228933
4,269428409;2,181117773;8,035240173;1,905784607;8,541333289
4,271428142;2,145204782;7,597101212;1,788468719;8,09422453
4,273427875;1,723825216;5,789478779;1,44849205;6,211905273
4,275427608;1,723825216;5,789478779;1,44849205;6,211905273
4,277427774;1,659181833;4,982633114;1,223437071;5,392245856
4,279427507;1,668758631;4,529829502;0,940921247;4,918276474
4,28142724;1,563413739;3,586514235;0,677559078;3,970696813
4,28342704;1,369483352;2,700659513;0,746990919;3,118820593
4,285426773;1,340752959;2,284068346;0,644040287;2,725687913
4,287426506;1,15400517;1,443703651;0,349553436;1,881009242
4,289425806;0,837970614;0,55784899;0,430956304;1,095040448
4,291425539;0,248996973;0,04309563;0,67037648;0,716422606
4,293425272;-0,318428814;-0,81881696;0,873883605;1,239165315
4,295425005;-0,318428814;-0,81881696;0,873883605;1,239165315
4,297424738;-0,658405483;-1,316810966;1,211466074;1,906604035
4,299424538;-0,799663365;-1,551442742;1,240196466;2,141150008
4,301424271;-1,053448796;-1,9321208;1,180341482;2,497208675
4,303424004;-1,319205165;-2,279279947;1,477222443;3,019537297
4,305423304;-1,584961534;-2,693476915;1,678335428;3,547355461
4,307423037;-1,707065821;-2,908955097;1,654393315;3,756742035
4,30942277;-2,020706177;-3,320757866;1,874659896;4,315673294
4,31142207;-2,360682964;-3,782838583;2,360682964;5,04534596
4,313421803;-2,82036972;-4,467580318;2,616862535;5,8959078
4,315421603;-2,82036972;-4,467580318;2,616862535;5,8959078
4,317421336;-3,174711466;-4,881777287;3,110068083;6,601747181
